Sample:	'1
File name:	GF1_rw.FD3
Run Date:	10:22:54, 06/01/2016
Operator:	elisabeth
Comment:	'

Instrument
Model:	F-7000 FL Spectrophotometer
Serial Number:	1910-003
ROM Version:	5J14000 03

Instrument Parameters
Measurement type:	3-D Scan
Data mode:	Fluorescence
EX  Start WL:	200.0 nm
EX  End WL:	450.0 nm
EX Sampling Interval:	5.0 nm
EM  Start WL:	250.0 nm
EM  End WL:	600.0 nm
EM Sampling Interval:	2.0 nm
Scan speed:	12000 nm/min
EX Slit:	5.0 nm
EM Slit:	5.0 nm
PMT Voltage:	700 V
Response:	0.01 s
Corrected spectra:	On
Shutter control:	On
Contour interval:	10.000

Instrumental Response
EX (200 to 600nm)  Slit:5.0/20.0nm  PMT Voltage:400V
EM (200 to 600nm)  Slit:5.0/20.0nm  PMT Voltage:250V
EM (500 to 900nm)  None
EX (500 to 900nm)  None

Data Points
	200.000	205.000	210.000	215.000	220.000	225.000	230.000	235.000	240.000	245.000	250.000	255.000	260.000	265.000	270.000	275.000	280.000	285.000	290.000	295.000	300.000	305.000	310.000	315.000	320.000	325.000	330.000	335.000	340.000	345.000	350.000	355.000	360.000	365.000	370.000	375.000	380.000	385.000	390.000	395.000	400.000	405.000	410.000	415.000	420.000	425.000	430.000	435.000	440.000	445.000	450.000
250.0	140.4	77.27	98.41	28.41	48.44	108.9	432.5	184.7	53.16	 5327	9999.9	 8939	138.8	12.05	9.793	6.312	6.003	3.965	4.573	4.108	3.285	3.244	3.005	2.922	2.431	2.699	2.569	2.860	3.140	2.766	2.912	2.445	3.200	2.893	2.682	2.863	2.512	2.311	2.570	2.722	2.506	2.187	1.957	1.517	0.774	0.825	0.940	0.766	0.605	0.502	0.508
252.0	189.4	128.3	121.6	79.74	60.26	55.87	308.9	315.7	76.70	 1194	9999.9	9999.9	 2546	16.65	9.920	7.047	6.486	4.595	4.615	3.376	3.212	2.737	2.930	2.753	2.868	2.850	2.465	2.637	2.887	2.754	3.273	2.719	2.845	2.726	2.787	2.595	2.222	2.098	2.428	2.846	2.547	2.156	1.937	1.404	0.994	0.737	0.864	0.794	0.869	0.723	0.632
254.0	220.1	142.9	94.59	69.22	43.47	37.16	184.2	390.2	119.9	219.9	 6558	9999.9	 8245	163.1	12.13	8.007	6.769	5.152	3.710	3.495	3.972	2.925	2.733	2.967	2.796	3.147	2.822	2.383	2.921	2.470	2.758	3.099	2.579	2.405	2.580	2.610	2.466	2.402	2.346	2.556	2.133	2.414	2.011	2.021	1.238	0.989	0.514	1.000	0.664	0.702	0.721
256.0	306.6	133.7	113.9	76.61	56.54	37.63	90.11	368.0	228.7	77.53	 2068	9999.9	9999.9	 1339	13.73	9.251	8.304	5.766	6.080	4.772	4.135	2.618	3.255	3.043	2.925	3.153	2.841	2.657	2.678	2.857	3.092	2.887	2.945	2.611	2.789	2.679	2.490	2.469	2.155	2.262	2.227	2.390	2.154	1.829	1.555	0.920	0.848	0.787	0.672	0.712	0.585
258.0	171.9	128.2	107.9	85.19	51.27	39.66	52.94	275.4	336.7	74.89	422.2	9999.9	9999.9	 5591	45.60	10.80	9.065	6.271	5.818	4.618	4.103	3.957	3.195	3.534	2.775	2.857	2.789	2.833	2.890	2.555	3.113	2.577	2.847	2.805	2.461	2.854	2.335	2.289	2.127	2.069	2.065	2.189	2.242	1.810	1.763	1.289	0.983	0.687	0.593	0.875	0.640
260.0	224.3	91.27	127.0	96.39	70.62	39.66	37.10	158.5	406.4	119.7	94.30	 4021	9999.9	9999.9	485.9	13.37	9.362	7.023	5.140	4.707	4.337	4.012	3.013	3.814	2.603	3.298	2.591	2.795	2.518	2.720	2.950	2.707	2.828	2.852	2.690	2.816	2.631	2.572	2.172	2.148	2.289	2.298	2.128	2.195	1.737	1.493	1.031	0.793	0.705	0.737	0.655
262.0	246.7	117.9	116.1	94.28	60.14	50.47	40.93	81.17	374.8	225.2	53.76	 1001	9999.9	9999.9	 2978	20.06	11.22	7.014	5.982	5.482	4.653	3.975	3.782	3.836	3.082	2.754	2.743	2.762	2.837	2.599	2.588	2.426	2.915	2.712	2.485	2.282	2.323	2.537	2.098	2.085	2.107	2.136	2.584	2.352	1.742	1.439	1.096	0.872	0.844	0.722	0.765
264.0	266.0	193.5	111.0	68.08	48.81	41.83	38.71	45.90	264.1	333.4	64.59	185.2	 7342	9999.9	9999.9	166.3	13.05	9.543	7.837	5.716	4.864	4.479	4.215	3.112	3.296	2.544	3.210	3.151	3.062	3.077	2.845	2.682	2.520	2.475	2.725	3.115	2.483	2.509	2.112	2.064	2.271	2.103	2.217	2.129	1.886	1.803	1.248	1.035	0.802	0.792	0.859
266.0	228.5	121.4	139.9	85.38	66.19	40.76	36.18	39.54	148.1	426.3	131.5	61.73	 2340	9999.9	9999.9	 1479	16.80	12.27	8.973	6.749	5.649	4.959	4.335	3.289	2.847	3.354	2.788	2.877	2.860	2.726	2.745	2.776	2.791	2.909	2.706	2.941	2.718	2.351	2.262	1.913	2.424	2.103	2.024	2.130	2.156	1.723	1.647	1.229	0.928	0.725	0.652
268.0	260.8	151.1	137.8	116.5	84.28	43.12	40.05	37.74	74.99	396.5	239.0	49.28	489.1	9999.9	9999.9	 6608	36.86	12.14	9.482	7.270	5.638	5.410	4.168	3.718	3.739	3.395	3.242	2.971	2.948	2.785	2.650	2.997	2.717	2.952	2.491	2.927	2.689	2.452	2.395	2.286	2.249	1.782	1.853	2.319	2.107	1.932	1.681	1.231	1.003	1.003	0.817
270.0	282.2	151.5	107.2	76.21	76.72	50.63	43.64	30.08	40.15	272.2	364.8	64.29	107.4	 4376	9999.9	9999.9	494.6	16.23	11.15	8.016	7.269	5.722	4.614	4.606	3.756	3.494	3.059	2.925	3.092	2.782	2.858	2.919	2.853	2.974	2.624	2.663	2.471	2.502	2.483	2.196	1.982	1.837	2.061	2.062	2.239	1.709	1.556	1.420	1.034	0.838	0.739
272.0	280.7	208.2	162.5	90.85	84.06	44.02	40.51	27.18	36.83	152.7	432.1	140.3	46.69	 1070	9999.9	9999.9	 3360	21.36	12.84	9.275	7.248	5.760	5.248	4.326	3.784	3.704	3.745	3.168	3.351	3.003	2.771	2.844	2.674	2.675	2.545	2.639	2.404	2.533	2.272	1.963	2.278	1.947	2.009	2.163	1.936	1.975	1.644	1.622	1.171	0.928	0.685
274.0	293.8	277.7	145.9	119.5	82.95	46.61	36.57	31.81	25.36	70.96	388.3	248.4	40.86	200.7	 7318	9999.9	9999.9	150.0	15.28	10.48	9.888	6.332	5.251	4.506	4.090	3.312	4.096	3.275	3.264	2.816	2.946	2.691	2.656	2.760	2.727	2.800	2.550	2.457	2.392	2.077	1.923	2.012	1.956	2.253	1.828	1.912	1.780	1.558	1.231	1.201	0.820
276.0	279.4	243.9	202.9	117.9	76.10	60.19	41.19	31.96	28.24	39.37	246.3	386.7	66.13	62.05	 2216	9999.9	9999.9	 1425	19.55	12.41	9.461	7.186	6.138	4.934	4.417	4.293	3.705	3.663	3.286	3.175	2.684	2.807	2.953	2.911	3.007	2.801	2.700	2.747	2.308	2.386	2.128	2.192	1.832	2.093	2.050	2.167	2.054	1.868	1.510	1.002	0.995
278.0	344.1	180.5	165.4	136.5	107.7	74.03	47.31	33.31	24.32	29.68	128.3	440.3	135.6	40.12	453.6	9999.9	9999.9	 7623	43.09	15.13	11.63	8.207	5.638	5.149	4.922	4.541	3.774	3.277	3.381	3.202	3.034	2.855	2.689	2.823	2.899	2.832	2.542	2.382	2.467	2.182	2.092	2.200	1.850	1.883	2.124	2.032	2.347	1.937	1.845	1.098	1.103
280.0	333.3	249.3	190.3	117.3	112.6	64.12	42.79	31.78	31.16	24.66	65.90	380.4	244.0	38.40	101.4	 3978	9999.9	9999.9	472.7	17.51	11.49	8.887	7.525	5.650	5.016	4.406	4.032	3.697	3.706	2.973	2.982	3.290	3.059	2.794	2.904	2.649	2.501	2.251	2.012	2.540	2.168	2.202	1.931	2.040	1.989	2.041	2.117	1.693	1.693	1.222	1.077
282.0	339.7	203.4	156.8	170.7	115.0	57.30	49.36	36.78	29.69	26.06	36.33	239.8	386.5	67.79	44.75	926.6	9999.9	9999.9	 3651	24.41	12.49	11.26	8.660	5.936	4.866	4.592	3.865	3.786	3.553	3.353	3.165	2.919	2.991	2.964	2.790	2.774	2.667	2.822	2.366	2.474	2.252	1.992	1.934	1.762	1.942	1.997	2.076	1.942	1.695	1.556	1.169
284.0	381.8	244.8	212.0	182.1	101.6	77.79	50.80	39.84	29.13	24.72	24.93	128.3	442.1	135.7	37.69	178.4	 7257	9999.9	9999.9	158.7	15.91	11.96	8.651	7.245	5.761	4.568	4.124	4.669	3.620	3.622	2.741	2.849	3.162	2.736	2.775	2.900	2.776	2.914	2.570	2.712	2.448	2.285	1.772	2.026	1.752	1.745	1.893	1.959	1.963	1.678	1.341
286.0	411.9	245.8	207.9	152.0	134.0	94.92	51.76	38.26	27.50	22.73	25.42	61.89	379.8	265.5	43.35	61.19	 2059	9999.9	9999.9	 1592	20.33	12.70	9.895	7.841	5.572	5.724	4.377	4.445	3.397	3.672	2.918	2.951	2.952	2.770	2.896	2.673	2.682	2.691	2.719	2.494	2.097	2.356	2.236	1.954	1.786	1.735	1.967	1.975	2.005	1.706	1.472
288.0	411.9	270.3	221.4	146.0	144.1	86.99	52.67	35.12	25.53	24.33	26.01	35.94	264.9	386.6	64.73	40.11	405.3	9999.9	9999.9	 8474	35.11	15.28	11.08	8.057	7.036	6.503	5.209	4.517	4.064	3.339	3.342	2.907	2.944	2.680	3.265	2.641	2.549	2.606	2.638	2.338	2.584	2.455	2.473	2.030	2.013	2.284	2.185	2.058	1.955	1.697	1.690
290.0	426.1	265.0	267.0	188.4	129.3	83.56	52.94	38.47	33.95	25.51	24.77	26.69	134.0	455.4	135.9	39.40	96.93	 4226	9999.9	9999.9	395.9	18.47	13.05	8.900	6.943	6.913	5.091	4.429	4.335	3.411	3.503	3.099	3.269	2.702	3.040	2.783	2.492	2.811	2.478	2.379	2.574	2.398	2.430	2.036	1.742	2.090	1.726	1.998	1.831	1.699	1.743
292.0	481.7	325.4	275.7	170.0	143.2	80.20	60.32	40.36	32.64	24.28	28.16	21.89	66.70	382.3	249.3	44.15	49.59	973.1	9999.9	9999.9	 3249	23.66	14.79	10.57	7.891	6.891	5.313	4.827	4.385	3.616	3.630	3.180	3.074	2.869	2.707	2.623	2.378	2.958	2.425	2.412	2.168	2.179	2.058	2.114	1.768	1.901	1.951	2.087	1.757	1.625	1.677
294.0	611.0	268.2	234.6	189.4	146.4	97.31	51.91	38.65	31.24	30.92	31.54	23.94	35.92	238.8	377.7	69.24	38.29	186.9	 7857	9999.9	9999.9	114.0	16.29	11.47	9.294	7.374	5.193	5.194	4.897	4.284	3.788	3.136	3.057	2.882	2.738	2.531	2.880	2.613	2.613	2.250	2.160	2.340	2.199	2.247	1.817	1.633	2.022	1.850	1.612	1.856	1.714
296.0	455.4	341.3	237.2	204.0	131.6	89.67	55.31	39.46	31.31	31.26	30.43	24.24	31.13	122.4	440.1	140.6	39.65	63.62	 2126	9999.9	9999.9	 1315	21.71	13.00	9.308	8.207	6.032	5.386	4.639	3.968	3.818	3.281	3.145	3.188	2.993	2.721	2.844	2.558	2.622	2.419	2.267	2.526	2.182	2.342	2.115	1.767	1.808	2.010	1.808	1.919	1.652
298.0	478.7	371.4	253.4	202.1	150.2	114.6	62.55	50.41	39.16	40.48	31.57	28.33	27.79	61.57	371.3	272.5	43.72	45.03	393.2	9999.9	9999.9	 8313	41.88	15.86	11.40	9.091	6.403	5.983	4.811	4.111	4.456	3.445	3.367	2.887	2.786	2.672	2.925	2.663	2.733	2.448	2.274	2.500	2.304	2.163	1.977	1.688	1.776	1.863	1.935	1.862	1.673
300.0	446.6	297.6	251.4	200.5	143.0	124.5	76.72	55.70	42.92	35.21	34.76	28.22	29.87	40.09	242.4	378.0	66.76	40.77	94.54	 3887	9999.9	9999.9	404.7	20.17	12.26	9.520	7.705	6.461	5.032	4.334	4.032	3.966	3.335	2.950	3.047	2.915	2.853	2.906	2.550	2.749	2.357	2.513	2.563	2.308	1.870	2.093	1.738	1.668	1.723	2.007	1.953
302.0	488.7	347.5	228.6	227.5	156.9	99.09	72.86	53.37	48.07	35.80	29.85	32.91	31.51	33.33	128.0	421.4	132.7	40.03	50.84	817.8	9999.9	9999.9	 3629	26.73	14.59	10.39	8.354	6.643	5.375	4.752	4.510	3.964	3.407	3.371	3.016	2.680	2.646	2.351	2.455	2.491	2.259	2.421	2.538	2.391	2.080	2.044	1.862	1.905	1.744	2.208	1.987
304.0	498.9	381.1	310.3	217.4	139.6	102.7	89.15	58.95	49.16	47.53	34.39	29.87	33.65	31.65	67.31	352.1	246.3	45.06	39.28	163.4	 8702	9999.9	9999.9	116.4	17.11	11.51	9.270	6.870	5.942	4.789	4.643	4.094	4.031	3.372	3.183	2.719	2.937	2.667	2.379	2.619	2.501	2.426	2.330	2.581	2.224	2.041	1.885	1.949	1.869	2.121	1.771
306.0	543.4	385.2	281.0	239.7	157.4	111.4	82.84	56.87	49.87	40.93	38.50	36.48	31.74	31.33	44.37	232.0	363.9	64.03	36.81	58.11	 2375	9999.9	9999.9	 1473	22.40	13.78	10.50	7.696	6.379	5.461	4.831	4.395	4.127	3.235	3.262	2.994	2.509	2.977	2.589	2.391	2.556	2.323	2.052	2.208	2.297	2.147	1.904	1.949	1.781	1.836	1.666
308.0	530.8	373.6	302.5	223.4	146.7	114.2	80.31	68.37	47.77	41.85	42.83	35.28	30.61	32.35	36.86	127.4	412.0	125.7	34.97	40.89	429.4	9999.9	9999.9	 9167	38.89	16.28	10.58	9.413	7.499	5.868	4.804	4.693	4.231	3.643	3.161	2.830	3.118	2.487	2.491	2.666	2.560	2.251	2.350	2.181	2.333	2.115	1.916	1.824	1.901	1.986	1.570
310.0	578.3	397.2	308.5	196.9	167.8	110.4	102.7	66.91	57.39	54.55	44.29	38.80	36.16	35.17	38.14	72.06	351.4	231.7	41.74	34.49	98.00	 4411	9999.9	9999.9	422.5	18.95	12.59	9.961	8.198	6.385	5.581	4.524	4.148	3.949	3.223	2.914	2.914	2.582	2.457	2.739	2.481	2.479	2.107	2.130	2.409	2.032	2.045	1.928	1.554	1.587	1.621
312.0	575.5	392.5	354.5	206.9	183.5	125.9	86.30	66.98	53.64	50.97	44.36	39.29	38.23	36.95	42.91	51.88	235.4	344.9	64.43	34.76	46.43	923.2	9999.9	9999.9	 3846	26.14	14.24	10.51	7.787	7.011	5.790	4.773	4.194	3.756	3.372	3.319	2.905	2.793	2.736	2.724	2.609	2.634	2.461	2.359	2.179	2.386	2.249	1.903	1.873	1.903	1.625
314.0	524.6	305.7	379.6	226.6	175.5	125.6	99.76	75.21	52.18	56.69	46.53	48.98	42.80	40.00	39.98	46.24	140.9	390.0	120.6	33.89	36.55	173.5	 8374	9999.9	9999.9	101.8	18.03	11.88	9.132	8.078	6.018	5.154	3.938	4.071	4.023	3.683	3.453	2.852	2.523	2.485	2.645	2.339	2.364	2.220	2.209	2.346	2.033	1.991	1.518	1.666	1.763
316.0	529.1	339.6	324.2	295.4	216.2	154.8	113.1	82.21	69.96	59.24	50.25	48.97	47.71	41.47	42.81	48.31	81.05	348.3	216.3	41.59	36.45	59.10	 2216	9999.9	9999.9	 1309	22.18	13.41	10.60	8.543	6.700	5.343	5.124	3.930	3.758	3.666	3.202	2.823	2.589	2.346	2.588	2.476	2.313	2.260	2.192	2.518	1.853	1.961	2.306	1.708	1.877
318.0	545.9	400.1	329.9	236.2	255.7	191.4	127.2	78.75	76.49	68.27	54.44	52.68	45.57	44.21	44.54	50.81	62.72	238.6	314.1	64.06	37.73	43.84	391.0	9999.9	9999.9	 8460	37.00	16.32	10.69	9.442	7.042	5.379	5.332	4.017	3.836	3.575	2.817	3.022	2.818	2.485	2.429	2.283	2.042	2.444	2.221	2.115	1.969	2.210	1.879	1.751	1.826
320.0	585.6	419.4	386.2	285.1	253.9	220.2	140.0	82.83	74.11	74.53	59.40	51.64	46.23	48.33	52.29	51.90	60.13	145.9	375.5	123.0	42.26	41.59	96.04	 4059	9999.9	9999.9	375.0	19.52	12.40	10.34	8.913	6.564	5.985	4.526	3.887	3.975	3.170	2.736	2.649	2.689	2.549	2.608	2.130	2.708	2.330	2.110	2.335	2.219	1.942	1.945	1.716
322.0	558.3	461.9	386.5	327.5	237.8	222.1	150.9	93.18	78.71	81.93	61.60	51.86	53.90	49.81	53.03	53.99	59.92	90.86	328.0	212.0	50.08	45.38	52.30	810.9	9999.9	9999.9	 3767	26.74	14.12	11.37	8.289	7.600	5.590	5.035	3.978	3.266	3.351	3.119	2.886	2.916	2.779	2.602	2.546	2.634	2.061	2.487	2.233	2.092	1.846	1.820	1.913
324.0	509.3	433.7	392.9	276.5	270.9	208.7	134.9	91.13	74.06	87.82	70.96	55.45	51.87	51.14	55.20	57.06	62.18	71.24	240.2	305.7	64.56	46.89	45.98	159.4	 8232	9999.9	9999.9	97.72	17.37	11.68	9.563	7.304	6.598	5.083	4.319	3.732	3.843	3.483	2.812	2.895	2.410	2.625	2.339	2.181	2.414	2.594	2.134	2.329	2.280	1.983	1.754
326.0	531.8	362.8	376.1	262.3	218.6	229.6	135.6	94.26	86.35	80.48	73.05	58.21	51.26	50.87	57.36	58.90	63.19	64.45	149.8	347.9	109.5	48.05	43.25	60.51	 2121	9999.9	9999.9	 1398	22.85	13.60	11.11	8.236	6.926	5.327	4.793	3.837	3.418	3.374	2.834	2.532	2.607	2.441	2.496	2.351	2.371	2.303	2.235	2.285	2.416	1.971	1.822
328.0	466.4	510.5	344.3	311.5	223.2	221.6	167.2	102.1	88.49	86.21	73.27	62.93	54.23	52.68	57.07	59.85	65.35	62.49	95.47	309.0	178.5	50.07	40.61	42.84	369.2	9999.9	9999.9	 8648	38.82	15.16	11.02	9.538	7.114	5.536	4.928	4.420	3.875	3.670	3.450	2.985	2.916	2.508	2.378	2.267	2.170	2.207	2.185	2.431	2.357	2.192	1.976
330.0	650.4	398.9	329.4	333.8	282.7	225.7	158.6	108.6	94.61	96.80	78.20	67.51	52.87	52.96	56.12	59.47	64.31	62.86	72.13	223.7	260.1	60.73	41.63	40.17	88.15	 4411	9999.9	9999.9	390.4	18.94	12.00	9.557	7.481	6.217	5.082	4.299	4.063	3.223	3.161	2.853	3.144	2.497	2.609	2.444	2.170	2.074	2.295	1.957	2.021	2.235	2.230
332.0	610.3	367.9	302.4	335.1	278.0	243.5	144.9	105.4	93.38	85.17	76.46	71.23	53.80	53.50	58.55	57.62	62.59	66.00	67.85	146.6	309.5	98.23	40.65	37.55	45.36	904.3	9999.9	9999.9	 3627	25.88	15.08	11.04	8.943	6.541	5.263	4.641	4.022	3.726	3.604	2.648	2.848	2.896	2.292	1.867	2.267	2.405	2.489	2.435	2.137	2.168	2.045
334.0	494.9	333.7	299.8	283.1	251.5	223.1	153.2	112.7	99.57	90.16	84.76	63.49	56.24	53.18	57.60	59.18	67.76	67.52	65.30	93.79	301.7	163.7	45.45	37.20	36.55	165.2	 8330	9999.9	9999.9	88.43	17.17	11.46	9.493	6.770	5.846	5.216	4.589	3.507	3.562	3.106	2.666	2.686	2.553	2.281	2.331	2.328	2.191	2.484	2.403	2.445	1.840
336.0	493.9	451.9	334.5	333.7	264.2	230.2	147.0	112.5	102.7	90.95	81.65	59.98	55.87	52.85	54.35	63.66	69.02	69.69	67.35	76.07	232.7	235.8	57.39	36.88	35.30	51.20	 2179	9999.9	9999.9	 1266	22.66	13.73	10.28	7.816	6.189	5.376	4.846	4.096	3.450	3.092	2.960	2.479	2.555	2.606	2.186	2.280	2.287	2.418	2.071	2.232	1.940
338.0	542.3	395.0	350.6	321.7	232.2	236.4	156.6	119.2	99.25	105.2	87.84	62.60	57.53	51.95	57.53	64.97	68.03	69.54	73.34	69.20	155.8	286.7	88.67	37.55	33.67	31.13	373.5	9999.9	9999.9	 8160	38.56	15.27	10.76	9.025	6.480	5.606	4.797	3.904	3.367	3.507	3.287	2.818	2.475	2.378	2.274	2.146	2.480	2.112	2.314	2.153	2.177
340.0	478.9	392.4	348.0	322.8	249.7	224.2	161.4	112.2	108.4	109.1	85.16	64.37	56.94	55.06	53.68	61.41	70.51	69.01	71.08	68.44	102.0	276.5	142.6	38.40	32.93	28.19	81.37	 4287	9999.9	9999.9	400.7	20.08	12.41	9.581	7.570	6.609	4.784	4.214	3.829	3.494	3.080	3.271	2.474	2.457	2.281	2.140	2.120	2.127	2.050	2.230	2.271
342.0	416.1	373.1	308.6	276.8	244.2	218.8	154.7	117.2	105.0	105.5	97.59	66.03	55.36	52.63	57.41	61.30	62.53	68.48	72.96	68.22	75.86	219.4	206.1	49.68	33.20	25.29	34.52	847.3	9999.9	9999.9	 3860	25.82	13.91	10.40	8.365	6.604	5.303	4.122	4.105	3.492	2.765	3.145	2.786	2.578	2.259	2.122	2.206	2.408	2.204	2.207	2.164
344.0	544.2	402.1	308.2	276.5	215.1	202.0	132.7	114.2	100.0	105.2	84.85	72.39	57.16	53.04	57.25	56.97	61.77	68.48	69.46	67.95	64.50	148.9	251.5	74.92	30.67	24.90	23.95	150.1	 7832	9999.9	9999.9	99.61	16.46	11.12	8.841	7.463	5.644	4.467	3.827	3.387	3.021	3.254	2.744	2.678	2.322	2.231	2.150	2.260	1.990	2.358	2.039
346.0	530.6	433.5	315.9	289.9	214.1	200.8	134.7	113.4	109.6	104.5	85.31	56.80	56.75	52.75	57.86	55.36	61.69	67.18	66.91	65.69	61.93	94.09	250.1	123.4	31.40	22.91	21.93	45.11	 2067	9999.9	9999.9	 1406	23.42	13.38	9.337	6.949	6.025	4.876	4.349	3.682	2.948	2.911	2.986	2.595	2.298	2.373	2.258	2.487	2.105	1.941	2.250
348.0	510.5	375.1	324.5	263.7	198.2	169.4	151.4	115.9	107.4	96.75	85.65	64.68	54.27	51.74	52.09	53.25	59.39	65.31	69.33	61.90	59.28	67.17	195.6	175.4	37.44	22.68	21.28	27.61	353.7	9999.9	9999.9	 8193	38.51	15.30	10.54	8.835	5.973	4.769	4.617	4.471	3.151	2.941	2.945	2.797	3.104	2.487	2.360	2.158	2.158	1.961	2.114
350.0	592.7	387.1	317.0	243.0	175.3	188.7	144.8	106.4	99.24	96.65	85.88	62.35	53.47	48.70	51.15	56.68	57.45	62.69	67.01	59.84	58.32	54.56	132.9	215.4	57.24	22.35	19.72	22.28	77.40	 4442	9999.9	9999.9	416.1	18.42	11.72	8.770	7.039	5.764	4.422	4.110	3.485	3.223	2.987	2.840	2.543	2.291	2.288	2.302	2.199	2.186	2.116
352.0	487.8	430.0	300.4	225.5	216.8	199.0	137.8	110.4	110.3	103.6	88.59	63.09	54.27	49.50	48.12	55.43	56.74	61.20	64.42	60.83	56.05	53.43	83.44	210.5	96.06	22.25	19.02	20.61	32.63	902.3	9999.9	9999.9	 3835	26.08	13.49	10.09	7.672	6.213	4.864	3.791	3.810	3.666	2.863	2.800	2.524	2.283	2.565	2.061	1.982	2.095	2.032
354.0	476.3	413.9	301.1	236.8	202.5	170.0	137.7	107.3	99.32	98.43	89.04	63.29	52.68	49.96	46.94	50.71	55.46	59.84	64.69	58.38	57.53	52.94	57.13	168.6	144.1	28.84	18.20	19.56	24.60	159.8	 7784	9999.9	9999.9	104.3	15.98	11.26	8.414	6.854	5.182	4.449	3.982	3.644	3.234	2.829	2.989	2.432	2.404	2.133	2.652	2.165	1.956
356.0	517.9	366.6	333.2	242.8	212.3	189.7	141.1	109.6	98.49	95.02	81.35	58.92	53.55	47.85	48.73	49.46	55.12	57.69	61.46	61.89	55.61	51.97	49.48	118.1	183.5	44.60	18.86	18.88	20.58	46.08	 2064	9999.9	9999.9	 1408	20.73	12.19	9.471	7.385	5.202	4.657	4.057	3.714	3.262	3.076	2.786	2.483	2.314	2.230	2.027	2.102	2.144
358.0	502.7	331.7	283.8	230.8	191.7	158.2	127.6	125.2	98.45	93.77	84.79	61.61	52.03	49.89	45.96	51.73	52.98	58.98	60.57	59.94	57.91	51.66	47.00	71.04	190.3	77.26	20.78	18.93	20.08	25.88	348.8	9999.9	9999.9	 8083	36.22	13.95	10.09	8.246	6.052	4.798	4.022	3.925	3.114	3.027	3.131	2.665	2.314	2.164	2.211	2.052	2.471
360.0	410.3	391.3	276.3	252.2	206.2	149.3	129.2	114.2	100.6	98.83	85.68	65.63	49.17	50.60	48.88	50.67	53.99	57.61	61.64	60.37	56.35	48.48	45.98	50.07	163.0	119.7	26.09	18.17	18.20	21.73	75.88	 4349	9999.9	9999.9	408.0	17.79	11.76	9.627	7.182	5.321	4.316	4.088	3.412	3.102	2.800	2.765	2.319	2.345	2.421	1.960	2.028
362.0	556.8	364.9	266.9	220.9	204.8	168.4	119.2	106.5	101.5	91.76	87.62	64.79	51.09	49.54	51.22	48.09	52.96	54.52	58.48	57.58	55.88	48.07	42.55	41.54	113.5	158.8	38.50	19.54	18.45	20.00	31.52	883.2	9999.9	9999.9	 3707	26.39	13.22	10.13	6.867	5.546	4.825	3.963	3.259	2.896	2.976	3.166	2.570	2.328	2.099	1.941	2.215
364.0	479.5	340.2	284.6	230.6	197.5	156.2	123.6	113.4	97.35	90.15	76.06	61.45	55.21	51.12	46.20	46.16	51.72	55.27	55.82	54.87	52.58	47.19	41.37	37.58	74.02	168.8	65.52	19.84	19.09	20.25	23.04	157.6	 7811	9999.9	9999.9	105.9	15.87	10.28	7.859	6.180	5.393	4.351	3.404	3.277	2.951	3.099	2.599	2.332	2.094	2.124	1.991
366.0	452.3	401.0	313.4	195.0	188.4	161.1	120.9	116.3	105.9	97.62	76.02	59.98	49.71	47.15	44.88	46.90	50.42	53.84	55.36	54.93	50.87	48.81	42.49	35.99	48.83	147.9	102.6	23.43	19.64	18.83	20.95	44.62	 2095	9999.9	9999.9	 1428	20.71	12.71	9.066	7.044	5.534	4.805	3.745	3.400	2.990	2.787	2.703	2.731	2.402	2.076	2.056
368.0	495.2	353.5	310.4	241.8	156.3	137.4	120.6	119.2	90.41	92.43	82.29	64.43	49.55	48.05	47.33	47.08	50.59	50.20	54.29	55.17	51.27	48.50	40.87	34.68	36.58	111.5	133.3	33.07	18.91	18.20	19.15	25.35	356.0	9999.9	9999.9	 7840	38.57	14.43	9.930	7.402	5.717	4.492	4.136	3.497	3.258	3.134	2.613	2.480	2.532	2.092	1.951
370.0	456.8	288.0	299.8	225.1	173.7	121.3	136.8	103.0	98.37	95.21	76.81	57.47	50.67	50.39	45.89	47.91	47.39	49.54	51.80	50.68	50.26	44.01	39.39	34.10	31.46	72.08	150.9	56.33	19.99	18.58	18.67	19.74	76.11	 4333	9999.9	9999.9	422.2	17.32	11.73	7.906	6.437	4.627	4.080	4.042	3.334	3.247	2.745	2.836	2.192	2.247	1.862
372.0	496.3	365.3	270.4	251.1	190.8	145.3	122.1	113.1	104.4	84.17	78.45	61.81	56.66	48.88	47.92	46.49	51.27	47.96	51.05	50.53	50.46	44.33	40.29	34.37	31.04	45.86	138.5	86.92	23.18	16.74	18.09	18.52	30.99	904.3	9999.9	9999.9	 3541	26.54	12.00	8.928	7.022	5.331	4.560	4.113	3.704	2.833	2.603	2.677	2.198	2.384	1.984
374.0	496.0	321.9	259.1	245.8	214.3	160.1	112.3	104.4	99.30	89.10	76.83	60.72	52.85	50.01	48.53	45.50	49.53	50.29	51.48	48.86	47.32	45.08	39.37	34.78	31.76	34.46	107.4	118.9	31.20	18.95	17.51	17.57	20.21	157.5	 7917	9999.9	9999.9	105.5	15.25	9.771	7.425	5.997	5.374	4.173	3.688	3.042	2.758	3.150	2.316	2.341	2.136
376.0	485.1	318.5	264.9	219.0	186.5	156.2	141.9	112.2	110.3	88.19	77.89	63.90	51.60	50.89	47.35	46.35	46.39	47.88	49.65	50.52	48.48	45.72	40.50	35.62	31.84	28.59	71.27	139.1	48.62	20.44	16.98	17.70	18.82	43.16	 2172	9999.9	9999.9	 1402	20.30	10.71	8.288	6.145	5.583	4.543	3.834	3.582	3.081	2.624	2.730	2.364	2.157
378.0	452.6	385.3	288.7	209.6	196.8	160.7	131.6	118.4	99.08	94.93	75.45	58.60	53.58	53.89	47.15	48.61	47.13	47.06	50.45	50.35	48.85	46.32	42.13	35.70	31.42	28.21	46.67	130.6	74.83	21.63	18.19	16.46	16.90	23.49	369.2	9999.9	9999.9	 7712	36.28	12.77	9.063	6.994	5.319	4.824	3.614	3.937	3.238	2.947	2.394	2.308	2.060
380.0	470.4	423.3	261.0	232.9	172.1	149.3	123.5	112.1	109.6	95.01	74.66	59.90	58.16	51.35	47.71	49.74	49.90	48.31	50.63	47.27	47.08	44.84	40.62	37.45	32.37	27.98	35.16	108.6	107.8	29.07	19.23	17.12	17.15	18.58	74.33	 4033	9999.9	9999.9	439.2	17.05	10.06	7.998	6.356	5.303	3.832	3.793	3.336	2.964	2.352	2.261	2.574
382.0	430.3	348.4	295.7	221.3	154.1	155.2	119.7	116.6	101.8	89.63	73.58	61.79	50.56	46.73	48.26	45.92	47.31	49.20	50.15	47.28	45.65	45.72	40.34	37.77	33.70	29.77	29.27	73.50	123.9	42.47	19.65	17.54	16.67	15.63	28.70	808.7	9999.9	9999.9	 3580	24.15	11.97	8.476	6.174	5.190	4.017	3.466	3.405	3.087	2.598	2.575	2.563
384.0	436.4	327.0	259.4	252.8	180.0	163.5	128.7	112.1	103.8	91.81	85.29	66.77	50.93	53.04	49.97	45.64	49.31	50.96	49.41	47.57	47.80	45.23	39.79	37.16	33.52	29.14	30.49	49.83	124.6	64.49	21.56	19.04	16.16	16.24	19.87	140.8	 7126	9999.9	9999.9	114.2	14.94	9.451	7.284	5.722	4.610	3.797	3.348	3.312	2.513	2.475	2.203
386.0	545.8	287.7	283.6	262.4	167.5	149.9	129.2	109.8	113.4	94.94	80.64	64.21	56.23	50.40	50.23	47.53	48.28	47.74	48.68	46.76	46.52	47.21	42.02	37.47	35.84	30.12	27.83	36.69	103.8	90.20	25.20	17.25	15.89	15.40	16.58	39.55	 1913	9999.9	9999.9	 1429	19.53	10.21	7.672	7.016	4.223	4.381	3.365	3.331	2.730	2.673	2.217
388.0	593.9	309.3	258.1	255.9	162.2	160.4	144.5	111.3	110.3	96.08	74.87	65.88	52.59	51.43	48.46	46.64	50.36	48.41	46.82	46.34	44.91	44.52	43.02	38.58	36.01	32.49	29.23	32.24	78.39	109.8	35.35	18.06	15.52	15.61	14.58	22.09	327.6	9999.9	9999.9	 7218	35.29	12.94	9.667	6.928	5.196	4.461	3.784	3.377	2.873	2.548	2.848
390.0	935.2	387.7	251.8	184.9	191.0	142.2	121.7	111.2	104.6	89.36	81.99	67.32	56.30	51.15	50.26	48.14	47.67	46.35	46.15	45.29	46.78	44.17	42.60	39.40	34.16	32.05	29.80	28.23	53.29	115.5	54.52	20.78	17.00	14.82	14.26	16.34	68.05	 4101	9999.9	9999.9	398.8	16.87	10.44	7.802	6.093	4.395	4.140	3.509	3.119	2.494	2.311
392.0	 1318	377.5	234.2	226.5	213.3	157.0	131.9	120.9	110.2	96.61	78.05	64.88	60.46	49.16	47.35	48.36	47.69	47.17	45.27	48.57	43.42	44.33	39.89	39.95	35.33	33.65	30.05	28.85	37.68	102.2	77.85	22.44	17.75	15.19	14.17	15.44	26.06	851.0	9999.9	9999.9	 3318	24.11	11.35	8.009	6.345	4.838	3.928	3.590	3.348	2.792	2.559
394.0	 2374	370.1	257.0	222.2	179.3	154.4	129.8	126.3	111.0	93.37	81.93	66.57	61.55	51.92	49.07	50.00	48.06	49.23	47.81	48.38	45.78	45.62	42.70	39.95	37.55	34.67	31.37	30.82	31.62	79.87	99.22	30.12	17.85	14.73	13.98	14.78	18.21	146.2	 7314	9999.9	9999.9	97.50	14.04	9.449	7.225	5.165	4.387	3.843	2.976	2.610	2.535
396.0	 3929	465.7	242.0	223.1	193.4	150.8	130.3	116.6	107.1	96.78	84.25	67.03	61.30	50.64	48.67	49.25	47.46	51.00	49.00	48.51	46.35	46.77	43.19	41.98	39.11	34.21	33.68	30.39	30.94	52.82	108.8	47.09	17.56	15.35	13.96	14.19	15.11	39.21	 1996	9999.9	9999.9	 1253	19.80	10.18	7.534	5.999	5.103	4.275	3.543	2.960	3.054
398.0	 5407	794.8	260.0	206.2	226.8	191.5	131.4	115.6	112.3	91.58	78.60	72.24	60.73	50.39	50.42	50.93	47.03	45.75	47.43	48.75	46.63	44.34	43.16	41.80	39.43	37.97	34.61	30.40	30.26	39.12	98.69	67.19	20.61	16.02	13.24	13.73	13.93	20.44	340.0	9999.9	9999.9	 6835	33.92	12.01	8.267	7.054	5.063	4.127	3.402	2.680	3.171
400.0	 6185	 1538	294.6	240.4	205.0	162.6	137.7	121.5	104.8	101.1	79.45	66.38	58.60	57.82	50.58	48.20	48.38	48.59	46.39	48.62	45.59	43.53	44.02	43.19	41.65	36.05	35.83	31.75	28.70	32.01	77.44	86.96	27.04	16.30	13.96	13.83	12.88	15.02	69.71	 3888	9999.9	9999.9	368.6	15.40	9.782	7.101	5.441	4.311	3.742	3.093	2.868
402.0	 6166	 2840	233.8	262.5	217.3	178.9	168.5	123.8	103.3	95.50	81.45	66.46	59.19	57.06	53.76	47.73	48.64	48.69	49.37	47.95	44.54	46.94	44.07	42.64	39.64	38.68	34.94	32.27	28.87	30.30	56.93	97.07	39.47	16.82	14.62	13.26	13.02	13.14	25.85	788.0	9999.9	9999.9	 3028	21.64	10.86	7.527	6.116	4.469	3.710	3.324	2.632
404.0	 5950	 4682	351.9	206.3	201.2	165.6	155.0	137.1	107.4	99.55	81.62	69.39	59.65	53.97	50.46	48.11	46.53	44.97	46.26	47.84	45.92	47.14	43.91	43.75	41.42	39.03	36.28	33.85	30.59	28.62	40.17	93.46	56.90	18.87	14.66	13.78	12.52	12.94	16.66	134.7	 6796	9999.9	9999.9	79.59	13.24	8.665	6.774	4.433	3.990	3.210	3.000
406.0	 4491	 6503	408.6	240.4	195.7	155.6	133.6	139.9	112.1	94.03	82.44	69.10	60.67	55.05	49.56	49.84	45.46	47.49	43.67	45.98	45.17	45.57	43.72	42.93	42.56	41.54	37.34	33.90	31.29	27.96	31.28	77.74	75.68	24.42	15.19	13.83	12.46	12.79	13.56	36.15	 1845	9999.9	9999.9	 1069	16.56	9.674	7.121	5.458	4.389	3.578	2.458
408.0	 2777	 8453	843.9	230.4	202.4	165.6	142.2	128.0	108.6	95.38	87.77	72.28	57.77	59.27	49.37	47.07	45.74	46.68	48.92	48.27	45.14	47.20	44.90	43.53	42.28	39.44	37.93	35.19	31.65	28.99	28.73	59.95	87.21	32.60	15.52	14.10	12.59	12.98	12.43	19.44	311.9	9999.9	9999.9	 6103	26.94	11.03	8.440	5.972	4.533	3.825	3.047
410.0	 1439	 8368	 2033	237.0	178.8	180.2	144.6	129.4	104.0	97.16	81.11	74.75	64.00	56.42	55.86	46.40	48.62	46.80	46.87	44.97	47.10	47.50	48.02	45.64	42.88	39.79	38.81	34.29	32.95	29.48	27.24	42.66	86.43	48.36	17.35	14.12	12.37	12.57	12.32	13.54	63.23	 3933	9999.9	9999.9	264.2	14.07	9.158	6.613	5.697	4.088	2.828
412.0	840.7	 7848	 3752	204.5	197.5	163.3	127.1	126.9	117.5	99.45	79.96	69.19	69.75	61.40	52.87	47.23	46.74	45.59	46.48	45.74	46.56	48.78	45.38	45.93	43.84	40.51	38.53	35.40	31.59	29.82	27.73	32.91	76.95	65.53	20.35	14.69	12.83	11.41	12.84	12.65	24.39	821.0	9999.9	9999.9	 2352	21.40	10.29	7.353	5.972	3.810	3.498
414.0	560.0	 6911	 5574	239.2	187.3	149.8	148.0	126.6	111.1	97.46	86.73	70.17	67.96	59.39	51.15	52.69	44.87	48.45	42.61	47.42	47.81	48.19	44.59	46.74	43.39	41.53	38.94	36.25	32.16	30.47	26.57	26.94	59.38	80.10	28.82	15.88	13.33	12.26	11.28	11.62	15.21	140.0	 6831	9999.9	 9490	70.81	12.51	8.862	6.271	4.271	4.129
416.0	538.1	 5193	 7938	412.7	183.8	163.7	152.8	135.8	109.1	94.98	82.47	77.99	69.03	55.82	54.62	50.24	46.33	45.70	45.78	45.57	46.60	47.49	46.21	46.65	43.82	42.42	38.97	37.04	33.94	29.92	27.51	25.69	43.16	80.80	41.40	17.18	13.89	12.76	11.99	11.50	11.72	35.94	 1856	9999.9	9999.9	969.3	17.11	9.853	7.134	4.934	3.991
418.0	489.3	 3351	 9375	962.0	190.7	172.6	149.8	130.8	111.6	92.49	81.59	71.92	66.57	58.31	53.65	50.17	45.90	47.90	45.16	43.69	48.23	46.14	47.87	45.81	44.70	43.17	39.50	36.67	34.56	31.29	27.81	24.62	31.91	74.62	57.01	20.38	13.61	13.50	11.52	10.72	11.05	18.90	314.5	9999.9	9999.9	 5538	29.45	11.14	7.509	5.594	4.169
420.0	501.4	 1847	9999.9	 2206	185.1	170.3	158.8	124.6	124.2	102.1	81.69	74.85	63.07	57.44	57.59	49.60	49.21	46.76	44.17	45.14	47.11	47.20	44.39	46.43	43.80	44.08	38.42	38.07	35.36	30.36	28.90	26.41	27.18	59.32	68.58	25.12	13.72	12.89	11.07	10.79	10.85	14.85	64.25	 3937	9999.9	9999.9	266.9	13.41	8.543	6.240	4.357
422.0	531.1	875.3	 8877	 3686	187.8	157.5	145.0	127.5	121.3	105.3	91.70	71.38	68.29	59.44	51.72	50.18	48.63	45.54	44.56	46.31	45.24	47.01	48.15	46.97	44.92	42.80	39.72	37.09	34.25	32.20	30.34	26.74	24.39	43.75	73.92	36.24	14.76	12.80	11.08	10.41	11.05	11.70	22.95	830.4	9999.9	9999.9	 2453	19.93	10.13	6.307	4.945
424.0	477.8	489.2	 7807	 6138	221.9	187.1	144.0	114.2	124.0	98.10	84.17	73.40	65.45	59.07	55.18	47.51	48.14	46.35	44.93	45.76	43.37	44.29	46.79	44.97	44.08	43.13	41.08	37.27	35.37	32.51	30.92	26.10	24.43	33.33	69.02	49.31	17.79	13.14	11.55	10.75	11.65	10.77	15.14	140.2	 7042	9999.9	 9792	68.89	12.34	7.574	5.661
426.0	676.2	431.7	 5779	 8294	408.2	162.7	156.9	130.7	103.2	96.93	85.59	73.54	65.19	61.56	55.41	48.45	45.80	46.23	43.70	45.24	43.19	45.74	48.12	45.54	46.90	43.09	40.64	38.19	35.63	32.95	30.24	27.82	25.35	27.56	57.70	61.59	22.29	12.47	12.31	10.69	10.91	10.58	11.09	35.52	 1995	9999.9	9999.9	945.1	15.82	8.795	6.437
428.0	651.5	353.6	 3689	 9726	961.9	139.8	129.6	128.5	116.8	94.73	85.27	74.19	65.55	60.26	55.65	49.43	48.01	46.19	44.62	43.32	43.42	44.89	45.72	45.11	43.56	42.88	41.98	39.18	35.65	33.98	31.76	28.60	25.10	25.60	43.51	66.42	30.14	14.41	11.63	10.64	10.16	10.29	9.888	17.00	349.8	9999.9	9999.9	 5277	25.26	11.22	6.322
430.0	641.0	374.9	 1923	9999.9	 2140	161.1	140.8	123.9	117.9	93.76	86.04	72.54	70.90	61.54	56.08	49.16	46.71	46.24	45.45	41.79	41.56	45.04	46.17	46.93	44.94	43.10	41.19	37.70	35.32	33.25	31.37	26.71	26.25	23.57	33.85	66.45	41.73	16.14	12.30	10.04	10.70	9.890	9.493	12.84	66.76	 4067	9999.9	9999.9	221.2	12.68	7.552
432.0	583.3	380.0	870.4	 9427	 3778	160.8	148.4	131.3	126.4	103.0	82.98	77.97	67.56	59.29	53.93	51.14	48.69	43.68	46.40	40.84	42.13	43.34	43.99	43.97	44.69	42.86	40.87	38.03	35.81	33.44	31.66	26.54	26.90	23.56	26.21	58.67	52.88	19.27	11.56	10.46	10.42	9.456	9.421	10.35	23.42	869.8	9999.9	9999.9	 2168	17.76	8.908
434.0	589.4	532.7	409.0	 8218	 6066	217.6	136.3	119.2	113.2	99.85	83.07	74.39	67.15	63.49	53.28	51.09	48.91	43.92	42.96	42.21	40.45	45.59	46.28	43.00	43.52	43.71	40.38	38.01	36.96	34.07	31.72	27.39	26.08	22.32	23.14	44.72	59.66	26.53	12.37	10.25	10.62	10.10	9.177	10.44	13.52	146.6	 6919	9999.9	 9159	58.08	10.46
436.0	525.4	554.2	325.6	 5854	 8493	373.4	151.3	128.9	113.8	98.01	87.98	81.32	65.44	61.69	53.63	51.48	46.91	45.54	41.40	41.69	42.59	44.00	44.20	40.87	43.22	42.89	41.69	40.69	36.45	33.13	31.61	28.90	26.86	23.48	22.44	32.54	60.63	35.20	13.55	11.10	10.17	9.513	9.693	9.753	11.49	37.15	 1934	9999.9	9999.9	792.8	14.90
438.0	471.3	586.2	232.1	 3455	9999.9	 1036	131.6	113.7	108.4	102.6	80.05	79.88	70.87	60.08	53.93	49.30	45.95	43.01	42.01	40.83	39.91	43.46	44.20	42.11	42.25	43.55	41.71	40.28	36.12	33.71	30.80	28.87	26.53	23.64	21.98	24.90	55.77	45.00	16.28	10.78	10.58	9.592	9.829	9.277	9.976	17.45	335.2	9999.9	9999.9	 4887	23.17
440.0	382.0	537.4	345.1	 1882	9999.9	 2176	144.6	118.6	93.44	101.4	89.75	72.64	66.84	65.86	59.12	49.66	45.88	45.41	40.10	40.79	39.15	42.02	42.54	43.60	42.64	43.35	42.56	37.96	36.76	32.62	32.63	29.92	25.10	24.75	21.60	22.79	44.47	52.66	21.04	11.99	10.77	9.925	9.456	8.623	8.937	13.11	66.19	 3815	9999.9	9999.9	219.8
442.0	382.9	558.2	285.4	888.0	9999.9	 4114	143.7	123.5	105.0	90.26	85.55	70.96	70.31	63.04	59.19	52.68	45.01	42.57	40.12	40.20	39.02	41.50	40.00	42.57	40.48	41.18	41.66	38.78	35.84	35.09	31.61	29.16	26.58	23.79	21.34	20.88	33.26	56.50	29.21	12.06	10.89	9.506	9.417	8.870	8.853	10.11	23.99	782.7	9999.9	9999.9	 2081
444.0	463.5	525.5	366.5	390.8	 8376	 6628	184.9	113.9	103.4	95.56	86.32	75.94	67.47	58.48	56.30	47.95	44.76	43.05	40.69	38.39	40.45	38.87	41.88	41.45	39.76	42.23	39.34	39.16	38.26	33.62	32.30	29.94	27.11	23.75	21.92	19.87	26.01	51.02	37.94	15.01	10.46	9.855	8.737	9.131	9.291	8.933	14.89	131.6	 6553	9999.9	 8517
446.0	374.3	500.3	345.1	267.6	 5967	 9265	328.9	116.4	103.3	91.87	77.46	73.86	64.23	60.28	52.09	50.38	47.52	44.86	42.92	39.23	40.16	39.72	41.80	39.79	41.70	41.29	41.09	41.21	36.38	34.18	32.42	29.31	26.62	24.64	22.76	20.75	20.56	43.08	46.88	18.19	10.81	10.11	8.455	8.070	8.625	8.313	10.70	33.69	 1799	9999.9	9999.9
448.0	401.6	381.7	522.5	284.7	 3688	9999.9	997.9	106.0	100.9	93.73	88.08	69.08	69.13	59.75	57.38	47.57	43.53	45.93	41.50	40.45	37.78	40.71	42.24	40.14	41.76	39.25	40.03	39.97	36.98	33.66	32.30	30.33	27.58	25.21	21.50	21.85	18.62	32.41	49.84	25.08	11.21	10.23	9.314	8.636	7.891	8.414	9.197	16.77	303.6	9999.9	9999.9
450.0	402.2	394.1	537.3	224.4	 1897	9999.9	 2408	114.7	102.4	83.26	89.52	77.19	66.32	66.27	57.24	46.03	44.89	40.81	42.58	39.77	40.03	40.76	38.91	39.96	41.44	39.19	38.05	38.28	36.53	34.79	32.09	30.50	27.91	24.48	22.68	20.68	19.69	25.75	49.15	32.16	12.35	10.30	9.652	8.301	7.903	8.670	8.904	11.93	60.40	 3646	9999.9
452.0	367.5	387.9	457.3	296.1	860.5	9999.9	 4483	127.0	112.5	103.8	78.03	71.77	66.61	58.04	53.92	49.22	44.46	41.53	39.79	38.83	42.35	39.21	37.44	39.88	42.57	39.43	37.55	37.02	35.86	35.74	32.23	29.34	27.75	24.85	22.89	21.36	18.78	20.24	42.50	40.22	16.16	10.26	9.542	9.305	8.218	8.104	8.155	9.712	22.00	758.5	9999.9
454.0	401.5	426.1	446.6	304.6	393.9	 8672	 7125	168.7	105.7	93.30	79.86	76.71	73.52	60.44	51.72	48.54	46.46	45.45	38.43	39.75	39.76	37.95	39.18	39.98	42.00	40.08	37.25	36.94	36.80	35.85	33.10	30.55	27.79	26.39	22.82	20.73	18.42	17.77	33.18	45.80	21.58	10.51	9.086	9.024	8.787	8.342	8.047	8.011	13.65	129.7	 6235
456.0	303.6	316.1	470.3	364.7	241.7	 6302	9999.9	423.5	102.3	94.23	83.76	71.23	67.83	56.47	51.57	50.54	43.56	42.09	41.10	37.46	39.17	40.04	39.87	40.84	38.84	37.45	37.75	36.84	36.14	34.96	33.44	29.87	29.35	25.68	23.81	21.09	18.50	17.99	24.76	44.89	28.76	11.63	9.014	9.233	7.931	7.927	7.754	7.522	10.57	32.14	 1666
458.0	253.1	342.7	400.6	433.2	183.7	 3746	9999.9	 1165	106.7	92.42	71.93	74.13	67.64	58.86	53.79	50.07	45.47	41.95	41.06	41.26	39.64	39.12	38.96	38.64	39.50	37.10	37.40	36.08	36.08	34.89	32.64	30.45	27.88	25.97	23.94	21.21	19.54	18.33	20.32	40.93	35.80	15.20	9.698	9.240	8.757	8.464	8.169	8.149	9.357	17.20	282.8
460.0	479.3	329.0	343.9	406.6	186.6	 1916	9999.9	 2727	107.3	87.75	79.89	79.39	66.99	57.52	52.57	43.98	47.28	44.20	40.96	38.72	39.66	37.68	40.63	37.50	38.65	36.75	36.18	35.25	36.71	34.30	33.01	32.25	27.98	26.62	23.34	22.33	20.45	18.71	18.26	32.66	40.90	18.60	9.868	8.515	7.847	9.602	7.945	7.811	8.203	11.56	57.46
462.0	424.0	314.6	342.3	440.1	225.7	779.6	9999.9	 5214	101.6	92.36	85.84	71.22	67.54	63.19	54.31	50.78	48.22	42.82	40.23	38.09	36.76	35.30	38.36	37.97	36.35	36.58	36.09	33.57	34.87	33.95	33.39	31.57	29.39	26.34	23.93	23.63	20.26	18.68	17.40	25.68	41.97	24.64	10.98	8.686	7.838	8.158	8.663	8.521	7.939	9.426	21.41
464.0	399.5	315.4	275.8	411.6	239.3	323.3	 9260	 8332	170.5	102.8	80.47	77.07	72.54	63.17	57.67	49.53	46.25	42.17	38.39	37.86	37.80	36.47	36.85	37.84	37.29	37.21	34.35	35.80	33.04	32.12	33.63	31.52	29.55	27.08	24.14	22.49	20.71	17.94	17.07	20.13	38.96	32.14	12.87	9.376	7.979	8.485	7.895	8.909	7.693	9.552	13.98
466.0	494.6	249.0	227.8	450.8	277.9	215.4	 6690	9999.9	452.4	100.5	72.65	69.79	73.06	60.38	58.38	47.42	50.01	42.51	39.42	36.72	35.40	37.57	37.43	37.23	34.74	35.06	34.02	33.61	32.49	32.06	32.14	31.22	28.73	26.32	24.65	22.21	19.86	19.67	15.68	17.05	32.39	36.49	16.54	9.282	8.457	8.233	8.412	8.131	7.876	8.753	10.49
468.0	488.7	357.6	283.7	469.1	322.5	170.6	 3942	9999.9	 1283	106.3	88.77	69.28	69.85	58.82	56.08	46.37	43.90	41.29	38.97	36.93	37.44	36.21	38.50	37.42	34.69	34.75	35.33	32.49	29.77	32.24	31.29	31.84	29.05	26.86	24.96	23.53	20.82	18.95	16.92	15.66	26.56	38.18	21.38	10.36	8.758	8.316	8.101	8.897	7.899	8.468	8.643
470.0	395.5	257.4	391.8	415.4	374.5	173.4	 1902	9999.9	 3060	100.1	86.04	75.66	69.02	52.73	55.27	48.98	45.54	42.14	41.26	37.46	37.82	35.09	39.12	36.16	35.53	35.29	35.18	34.09	32.36	32.73	31.32	32.09	29.89	27.98	24.21	23.37	20.79	19.02	17.62	15.48	20.61	37.82	28.62	11.30	8.888	8.771	8.049	8.584	7.681	8.105	7.991
472.0	343.6	334.4	335.6	354.4	360.9	188.5	815.4	9999.9	 5893	110.1	83.03	71.31	68.80	62.41	57.23	46.40	45.28	42.31	40.44	36.50	37.33	35.57	38.17	37.29	36.80	34.04	33.48	32.83	31.39	31.39	30.54	29.77	29.74	29.30	24.71	23.41	21.15	18.35	17.52	15.22	16.87	32.90	31.80	14.33	9.349	8.387	8.587	7.884	7.444	7.050	7.085
474.0	344.0	236.4	252.0	269.8	402.0	175.6	337.1	 8976	 9088	160.8	82.88	74.60	63.00	61.40	54.92	49.67	43.74	40.03	36.16	37.18	35.04	36.44	35.20	35.19	35.06	33.68	31.91	31.16	30.86	31.63	29.56	30.05	30.01	28.96	24.09	23.90	21.97	18.71	17.80	16.10	15.10	26.82	36.43	18.13	9.083	8.533	8.527	7.110	7.747	7.351	7.148
476.0	407.5	209.8	253.4	271.9	398.0	208.7	163.5	 6269	9999.9	459.1	89.10	69.36	64.78	63.75	56.12	50.53	42.47	41.85	37.49	35.58	36.29	34.65	37.13	33.43	35.57	33.64	31.74	32.51	31.18	31.11	29.20	28.13	30.62	27.50	24.11	21.90	21.92	19.07	17.84	16.64	15.11	21.32	35.13	23.10	10.10	7.921	7.990	7.072	7.804	7.512	7.169
478.0	460.1	255.8	223.8	269.1	437.2	239.0	139.7	 3558	9999.9	 1375	71.95	65.94	65.64	55.59	52.78	48.69	45.38	41.40	38.64	36.48	33.80	32.28	35.31	31.36	32.27	32.04	31.96	31.45	30.20	31.21	28.13	26.91	29.53	29.69	25.46	23.47	21.74	19.45	16.76	16.23	14.18	16.74	32.29	28.93	11.37	7.935	7.587	7.347	7.812	6.978	6.869
480.0	458.4	277.4	257.8	197.4	347.4	263.8	134.5	 1709	9999.9	 3247	87.76	71.58	61.55	58.50	46.51	46.53	43.07	37.49	34.34	35.54	34.51	31.40	34.39	31.75	32.91	32.97	31.32	29.85	30.07	29.43	29.28	26.02	26.84	28.49	25.85	24.36	21.35	19.12	17.15	15.56	14.59	15.18	26.80	32.12	14.43	8.604	7.501	7.536	6.950	6.078	6.930
482.0	398.2	265.8	237.9	228.9	320.6	299.3	142.3	670.1	9999.9	 5991	84.60	77.53	60.53	57.19	48.35	48.69	42.54	38.58	39.09	37.08	31.17	32.92	31.34	32.29	30.96	30.27	30.74	31.23	27.33	28.19	27.35	27.81	26.20	26.18	25.97	23.78	22.74	18.31	17.25	15.97	14.34	13.89	20.96	33.40	18.82	9.775	7.827	7.428	7.526	7.249	6.328
484.0	399.4	295.9	250.6	199.5	235.6	378.6	141.8	252.1	 8991	 9493	160.3	72.46	61.82	56.30	51.34	46.85	43.55	38.42	36.90	35.69	31.78	32.46	31.22	30.46	28.66	30.33	30.53	29.99	27.13	28.35	26.71	26.74	25.58	24.51	26.44	24.32	22.80	20.15	16.83	15.95	14.21	12.67	17.10	30.22	24.60	9.971	8.122	7.036	6.896	6.867	7.104
486.0	384.6	250.4	250.9	187.7	230.9	368.7	150.4	153.2	 6087	9999.9	482.9	73.65	63.33	59.60	48.64	47.54	43.27	40.68	38.13	36.22	33.96	28.61	30.20	31.33	30.69	28.32	28.80	27.93	26.80	25.76	25.94	24.31	25.55	23.48	25.90	24.95	20.88	19.83	18.54	16.27	13.98	13.16	13.84	26.75	28.54	13.30	8.454	7.852	7.372	7.275	6.813
488.0	422.3	290.1	325.3	217.0	171.4	361.9	180.7	123.0	 3428	9999.9	 1457	78.58	65.51	54.35	49.83	47.48	41.79	40.49	34.15	35.07	33.54	30.71	30.48	30.14	26.71	27.53	28.09	28.32	28.04	25.88	26.88	25.44	23.49	23.55	23.47	24.88	21.16	20.37	18.36	15.63	13.74	14.24	12.73	21.61	30.64	16.30	8.871	7.080	6.665	7.173	6.809
490.0	453.5	276.3	221.4	252.7	159.4	295.6	206.1	117.4	 1651	9999.9	 3458	76.58	60.69	52.16	47.25	49.73	41.94	38.89	39.00	34.94	32.70	31.56	28.80	31.63	27.57	29.77	27.25	27.55	26.12	25.24	25.94	25.50	23.96	24.51	24.11	23.90	23.00	21.65	18.28	16.42	14.53	11.98	12.76	17.31	30.78	21.38	9.393	7.463	7.230	7.043	6.429
492.0	335.2	287.0	314.3	212.0	191.9	272.5	255.1	112.9	638.3	9999.9	 6540	83.40	55.26	56.00	52.03	45.70	37.98	38.63	33.35	34.20	30.79	33.30	29.83	26.85	28.47	28.85	27.33	26.60	26.89	24.97	25.20	24.73	23.13	23.53	21.75	23.89	23.00	20.38	18.69	16.13	16.24	13.72	12.92	14.13	26.94	24.41	11.27	8.173	7.301	6.624	6.448
494.0	362.0	299.7	191.0	188.2	172.4	241.5	307.2	130.6	208.5	 8944	9999.9	152.7	63.45	53.95	53.86	43.75	40.62	37.42	35.35	30.68	32.46	29.77	28.84	27.44	30.01	26.42	26.28	25.14	25.83	24.83	24.83	22.96	22.82	21.78	20.41	22.20	23.91	21.14	18.41	16.55	14.46	13.57	13.26	12.84	22.26	26.92	14.18	8.105	6.679	6.783	6.325
496.0	457.3	287.8	220.9	164.9	174.5	207.9	288.0	125.6	115.4	 5972	9999.9	479.8	66.47	56.21	48.42	43.89	42.08	40.22	36.80	32.56	29.07	32.46	29.72	27.16	28.68	27.19	25.35	24.05	26.06	24.53	24.15	22.88	22.60	22.15	21.09	22.29	21.28	20.43	18.59	17.63	15.15	13.56	11.32	12.28	18.11	28.80	18.12	8.784	6.639	6.608	5.979
498.0	384.8	263.2	191.4	156.1	157.2	192.6	315.0	141.2	103.7	 3385	9999.9	 1454	65.26	53.96	51.27	40.39	38.77	36.48	36.16	31.33	28.79	29.87	28.83	27.00	25.30	25.21	25.19	24.89	25.06	24.32	24.10	22.53	22.61	21.29	20.55	21.28	21.49	21.16	19.03	17.95	15.24	13.92	12.52	11.18	14.52	25.62	21.75	9.581	6.637	7.162	6.209
500.0	416.5	275.6	240.6	171.6	145.4	149.6	290.8	169.0	88.14	 1671	9999.9	 3503	60.29	52.43	48.90	41.60	37.41	36.24	32.99	31.13	29.99	28.91	27.31	26.48	26.02	24.59	26.14	24.76	23.93	23.34	23.97	22.57	21.15	20.18	20.35	20.13	19.95	21.46	20.82	16.91	15.36	13.92	12.84	11.83	12.11	22.55	24.94	12.18	7.381	7.502	6.547
502.0	448.5	239.2	262.3	204.2	137.5	112.5	306.2	202.5	88.62	648.0	9999.9	 6706	70.09	55.46	49.48	40.84	39.05	35.26	33.88	32.77	32.04	28.75	26.90	24.98	27.28	24.80	24.00	24.93	23.82	22.12	22.40	21.04	21.33	21.06	20.59	18.62	19.55	19.54	20.07	17.22	15.30	14.21	12.83	11.57	11.53	17.75	27.18	15.57	8.788	6.273	5.351
504.0	449.5	312.1	253.4	195.5	155.5	114.6	279.2	247.5	82.27	217.6	 9091	9999.9	120.2	51.75	50.20	44.52	38.87	35.06	33.72	31.11	31.16	26.71	27.03	27.93	25.68	23.66	23.15	24.15	23.15	22.26	21.40	20.40	21.73	19.49	20.55	18.43	18.13	18.55	20.35	17.89	15.13	13.91	11.89	11.75	10.98	15.16	24.53	18.81	8.599	7.258	6.370
506.0	410.6	282.0	234.9	164.3	152.1	104.5	221.7	279.0	88.92	108.2	 6130	9999.9	391.7	55.93	46.29	45.64	40.56	33.66	33.07	32.51	28.88	26.83	25.77	26.70	23.99	23.12	23.15	22.15	23.74	21.81	21.42	21.06	19.25	19.54	19.90	19.23	17.90	17.50	19.95	17.73	15.46	13.80	12.65	11.24	10.89	12.22	22.46	21.73	10.76	6.551	6.033
508.0	283.5	265.8	146.1	196.6	177.4	117.9	178.3	327.8	100.5	81.15	 3573	9999.9	 1211	51.34	44.57	38.43	37.73	30.78	30.31	29.75	30.31	25.51	25.38	24.94	25.71	24.33	23.88	20.61	21.81	21.61	22.17	20.55	19.91	19.16	18.77	17.70	16.57	16.29	19.15	18.88	16.38	13.91	12.34	12.15	10.78	10.82	18.66	23.73	14.00	7.388	6.961
510.0	304.9	268.3	241.1	187.6	188.4	100.8	152.8	294.7	116.1	86.11	 1713	9999.9	 3128	58.37	45.67	41.51	36.20	35.46	33.28	28.48	28.07	26.12	25.85	24.53	24.37	23.50	21.89	22.00	20.72	20.73	20.21	19.48	21.42	17.66	17.92	17.55	17.25	16.30	17.43	18.93	17.34	14.30	12.49	11.59	10.94	10.42	14.85	24.67	15.83	7.972	6.252
512.0	341.4	259.5	237.3	211.8	156.9	106.2	124.9	267.1	140.8	81.37	622.1	9999.9	 6292	56.81	46.26	40.81	35.42	33.17	31.78	28.97	29.84	26.84	25.57	25.70	23.63	24.06	22.48	20.37	20.86	21.28	20.40	19.32	19.29	18.44	17.92	18.28	17.46	15.81	16.36	17.25	18.34	15.53	13.80	12.38	11.36	11.19	12.15	23.03	19.07	10.30	5.792
514.0	347.1	266.5	192.6	215.7	162.5	109.6	107.1	249.3	200.7	82.52	184.4	 9993	9999.9	123.4	52.51	39.99	36.47	34.09	31.91	29.25	26.41	25.90	24.73	23.57	22.43	22.64	21.80	20.05	22.51	21.23	20.47	19.61	18.33	17.31	17.35	17.07	17.12	15.77	15.59	16.16	17.88	16.34	12.72	11.65	10.71	10.02	10.74	19.08	22.11	11.96	6.120
516.0	478.1	357.8	174.2	167.5	121.0	123.5	123.0	227.4	239.0	76.56	103.3	 6837	9999.9	428.8	55.09	41.56	33.63	32.32	34.32	31.84	27.92	22.70	23.62	24.41	22.42	22.92	21.14	20.64	20.23	19.63	18.93	18.67	18.44	18.38	16.83	15.81	15.71	14.92	16.51	15.33	17.11	17.21	14.42	12.13	11.75	10.49	10.11	15.73	22.55	14.48	7.077
518.0	498.9	309.4	109.7	194.1	143.3	125.7	111.4	195.4	243.3	83.90	89.71	 3930	9999.9	 1344	50.65	42.34	39.00	33.21	31.75	27.98	29.96	24.75	23.67	22.68	21.66	20.84	20.73	18.95	18.63	19.27	18.14	17.39	17.76	17.12	16.57	15.38	15.69	15.22	15.49	14.37	15.98	17.17	14.71	13.01	11.76	10.61	10.58	12.41	22.26	17.57	8.176
520.0	559.4	303.3	223.4	200.2	127.6	127.5	112.6	161.3	287.7	93.47	72.37	 1826	9999.9	 3464	49.87	42.03	36.64	35.59	29.38	28.83	29.43	23.54	23.38	23.60	23.59	22.93	19.58	20.23	19.81	18.58	18.11	17.88	17.83	15.68	16.06	14.28	15.28	15.50	13.79	14.16	14.19	15.64	14.88	12.96	11.87	10.06	10.81	10.81	19.20	20.15	9.871
522.0	328.0	264.0	238.0	156.6	217.2	133.8	97.37	142.4	295.3	116.8	70.41	630.5	9999.9	 7116	57.72	40.10	36.81	33.89	28.75	28.88	24.33	26.80	23.68	21.02	22.65	20.25	19.56	20.72	19.66	16.53	18.71	18.67	17.97	16.24	16.89	14.01	14.13	14.84	14.77	13.67	14.29	18.26	15.84	13.45	11.58	10.47	10.37	10.74	16.07	20.96	12.53
524.0	296.6	277.3	208.0	193.0	152.1	106.8	93.13	121.2	283.5	129.9	57.57	202.3	9999.9	9999.9	115.1	42.82	41.01	31.60	30.39	28.35	25.13	24.80	24.56	22.31	20.59	20.87	19.76	19.29	18.48	19.08	16.63	16.71	16.06	16.91	16.16	15.28	14.37	14.06	14.48	13.67	13.59	15.30	16.89	14.58	11.07	10.52	10.06	9.014	13.72	22.47	15.31
526.0	415.5	246.5	225.0	136.5	151.2	109.4	109.9	94.43	233.2	176.2	65.41	83.98	 7898	9999.9	407.3	41.33	41.10	33.87	30.78	26.34	27.08	26.11	22.96	22.03	21.85	20.13	19.19	18.90	17.94	18.81	18.28	16.40	15.51	16.29	14.39	14.95	14.80	14.38	13.61	12.99	13.82	13.22	17.00	16.00	13.30	11.45	10.32	9.684	11.52	19.63	17.24
528.0	437.8	229.5	230.2	145.9	155.9	128.5	94.96	85.80	198.6	215.3	72.49	75.49	 4663	9999.9	 1273	50.01	38.82	32.61	30.64	27.62	26.60	23.35	24.31	23.17	21.87	20.30	19.79	18.03	18.04	17.05	17.40	17.39	16.68	15.91	14.25	14.61	14.21	13.98	13.94	13.70	12.35	12.51	14.39	15.64	13.71	12.21	10.10	9.917	10.45	17.22	19.79
530.0	469.0	338.3	220.2	191.4	170.2	128.8	70.12	87.76	161.3	243.9	77.59	71.66	 2189	9999.9	 3398	48.63	33.28	29.68	32.82	27.78	26.07	24.42	23.80	23.29	22.26	19.53	19.31	18.46	17.09	16.19	16.47	17.03	15.77	15.42	14.91	14.92	14.90	14.84	13.44	12.87	11.74	12.85	12.60	15.16	14.52	11.52	10.97	8.964	9.638	14.83	19.48
532.0	421.7	328.1	340.7	189.5	170.0	117.1	78.82	82.17	124.0	249.3	84.67	62.04	751.1	9999.9	 7153	54.08	38.06	35.55	30.21	28.93	27.42	25.77	23.53	22.11	22.01	19.68	19.36	17.42	16.69	17.06	17.07	16.50	14.45	14.78	15.61	12.81	13.69	12.89	12.95	12.28	12.48	12.32	13.09	14.12	14.98	12.50	11.41	9.812	9.053	11.91	19.36
534.0	334.4	352.3	190.0	157.5	135.2	116.8	83.69	75.79	94.74	261.6	111.0	63.53	218.4	9999.9	9999.9	134.2	37.33	35.19	31.07	28.22	25.66	23.81	23.34	21.65	21.65	18.32	17.92	17.75	16.87	16.57	15.62	16.91	15.95	13.23	14.02	14.37	13.40	12.71	12.09	12.94	11.62	12.10	10.87	12.22	15.42	13.53	11.32	10.01	9.653	10.14	17.20
536.0	440.5	294.9	309.8	151.4	136.8	118.9	76.92	88.19	75.07	251.1	137.3	66.02	87.39	 8242	9999.9	484.4	40.38	33.67	30.06	27.63	24.75	23.10	20.55	22.81	20.77	20.52	18.39	17.67	18.34	17.46	14.67	14.19	15.35	14.60	14.40	13.88	12.00	12.13	12.41	11.86	11.37	11.61	12.10	11.58	14.25	14.80	12.13	10.76	9.960	10.16	14.01
538.0	576.9	201.2	267.3	178.0	168.0	90.61	84.16	77.28	76.89	241.9	168.1	60.19	63.17	 4687	9999.9	 1491	39.99	33.65	32.99	27.30	24.52	24.41	22.66	19.53	22.34	19.13	17.29	16.72	17.59	15.20	15.26	15.59	13.94	14.49	14.92	13.16	12.29	12.94	11.99	9.951	11.30	11.69	11.57	10.99	11.97	14.85	12.41	11.09	10.50	8.981	12.12
540.0	345.1	244.7	255.1	217.2	151.0	135.9	71.95	85.81	80.15	211.9	196.8	59.64	61.37	 2050	9999.9	 3843	43.30	36.37	28.54	25.64	24.73	23.82	21.14	21.12	20.11	18.37	18.10	16.97	17.49	14.59	15.44	15.00	14.66	13.22	12.77	12.31	12.34	12.52	10.99	11.11	10.93	11.32	11.45	11.48	10.55	14.65	12.75	11.28	10.54	8.359	10.49
542.0	409.4	307.5	289.6	228.2	157.2	110.8	68.61	82.41	80.31	176.1	239.3	65.64	57.14	675.0	9999.9	 8021	51.66	35.61	30.51	25.38	25.25	22.30	21.64	19.22	20.48	18.32	18.11	15.81	16.10	15.82	14.94	14.21	14.03	13.47	12.92	12.69	12.26	11.54	10.54	10.74	11.18	10.47	11.18	11.77	11.00	12.30	14.76	12.46	10.59	9.492	8.387
544.0	422.1	291.8	273.9	252.3	168.2	127.4	95.96	77.78	73.22	138.0	270.3	74.48	59.88	183.6	9999.9	9999.9	125.7	37.04	31.60	24.58	25.15	22.12	22.75	19.92	19.19	18.93	17.67	15.54	16.48	16.86	13.23	14.85	14.05	13.18	13.04	12.10	11.81	11.72	10.93	11.72	10.85	10.28	10.55	11.11	10.98	12.42	15.97	13.45	11.35	9.318	8.577
546.0	492.9	344.1	234.2	197.4	177.8	94.13	81.62	85.54	74.25	101.9	270.7	89.53	50.73	75.87	 9123	9999.9	449.5	36.52	31.24	28.38	24.56	22.62	21.26	17.98	19.16	20.93	17.82	15.09	16.15	15.43	13.68	14.88	12.81	12.33	12.25	12.66	12.42	10.55	10.65	12.18	10.86	9.189	10.84	11.32	11.37	11.14	14.29	14.60	11.55	10.01	8.939
548.0	516.9	293.6	268.8	149.7	164.3	105.1	92.60	65.11	55.49	84.97	238.3	120.4	51.42	59.69	 5053	9999.9	 1456	36.34	31.35	28.46	23.94	25.22	19.85	18.98	18.74	19.55	17.51	15.18	18.21	14.63	13.95	13.05	12.90	13.39	11.72	12.09	13.12	11.31	10.02	10.68	10.91	10.77	10.44	9.848	9.191	10.13	12.36	15.55	11.30	9.045	8.308
550.0	400.6	277.4	266.4	148.6	182.5	91.01	91.84	74.30	54.56	64.38	225.6	168.4	50.95	55.77	 2111	9999.9	 3938	42.26	32.50	31.18	23.76	22.74	21.68	20.30	18.05	17.23	17.47	15.97	15.94	15.82	16.65	14.02	12.83	12.76	12.48	11.39	10.75	11.29	9.570	9.892	10.80	10.72	9.309	9.552	9.800	10.56	10.68	15.95	13.20	10.23	8.676
552.0	440.7	256.8	300.8	256.1	149.3	136.6	94.14	82.07	58.79	77.12	198.2	193.6	61.39	49.85	676.6	9999.9	 8509	53.68	33.87	28.22	25.12	21.88	21.18	17.81	17.76	16.48	18.19	16.68	15.47	15.56	14.55	13.20	12.59	13.40	11.62	12.28	11.71	10.77	9.099	10.70	10.84	9.998	10.20	9.554	10.88	10.78	10.06	12.70	14.50	11.84	8.806
554.0	359.7	351.2	260.2	173.1	152.1	126.8	87.75	80.11	54.34	53.55	146.8	223.5	63.00	50.94	189.2	9999.9	9999.9	131.4	38.97	33.04	23.04	21.98	21.03	19.40	18.02	16.29	18.32	15.97	14.16	14.98	13.64	13.07	13.14	12.63	11.30	11.38	10.80	10.48	10.85	11.24	10.10	8.776	8.589	9.316	10.69	9.541	9.897	11.54	14.82	12.58	9.522
556.0	293.6	286.4	225.5	173.9	173.3	131.2	99.61	78.84	58.19	54.98	133.5	280.2	77.68	46.05	78.22	 9517	9999.9	502.2	36.21	32.13	28.72	24.45	21.30	19.64	17.06	18.76	17.55	18.21	13.95	14.64	14.29	13.42	12.28	12.23	10.99	12.17	10.33	9.638	9.263	9.803	8.890	8.348	9.292	9.742	9.688	9.319	10.35	10.54	13.22	14.37	10.42
558.0	662.9	246.4	240.8	275.7	131.2	106.6	106.9	91.75	51.48	47.40	99.25	259.3	96.75	46.14	60.96	 5085	9999.9	 1586	42.09	30.54	24.57	22.33	18.49	19.46	19.79	16.48	16.74	15.16	18.17	15.06	13.37	13.27	12.82	11.46	12.63	12.44	10.85	11.03	10.00	9.885	9.715	9.568	9.860	9.024	8.884	9.632	9.590	9.513	12.86	14.88	11.39
560.0	447.0	256.9	223.2	291.0	175.9	100.7	116.3	65.48	58.26	58.90	66.20	269.6	114.9	49.31	53.77	 2036	9999.9	 4157	42.17	32.39	27.29	21.94	20.25	18.99	17.88	16.29	17.41	15.34	16.40	15.41	13.73	13.38	12.62	11.70	12.48	9.824	10.69	9.867	9.856	9.116	9.444	10.47	9.783	9.340	10.03	9.518	10.55	10.57	9.957	14.72	12.84
562.0	545.1	262.1	250.4	276.2	182.4	159.5	111.1	92.69	79.44	59.01	58.46	246.1	152.5	49.87	51.05	649.0	9999.9	 9117	51.52	35.05	30.61	24.94	20.98	17.95	19.09	15.51	15.89	15.92	17.35	14.97	14.71	14.45	14.68	11.87	12.67	10.66	10.87	10.98	8.839	8.822	8.858	9.683	8.544	9.282	9.479	9.889	9.105	10.26	9.577	13.12	14.54
564.0	533.9	349.5	223.7	163.3	188.0	154.7	112.6	93.21	69.42	54.58	60.63	211.8	212.2	51.55	50.52	176.3	9999.9	9999.9	141.6	38.75	29.80	24.59	19.82	19.43	17.08	16.11	16.27	15.66	16.40	15.48	16.33	15.09	13.91	12.07	10.98	9.945	10.73	9.856	7.338	8.902	8.119	8.796	8.290	9.631	8.862	9.116	9.451	10.39	11.17	10.86	15.55
566.0	387.1	473.3	221.2	220.4	164.2	122.1	109.7	70.99	49.27	57.59	58.20	167.3	246.8	56.76	45.16	77.83	9999.9	9999.9	507.0	37.15	29.91	28.34	21.10	18.19	17.54	14.94	16.45	16.86	14.28	16.16	15.03	14.67	13.50	12.43	10.04	11.49	10.90	9.531	8.607	8.080	9.180	8.487	8.427	8.754	9.448	9.442	10.04	10.01	11.07	11.60	13.73
568.0	343.4	363.4	284.7	245.4	173.0	138.5	125.7	69.79	59.77	55.80	56.59	117.4	305.2	70.04	42.69	59.05	 6059	9999.9	 1664	43.05	30.44	30.29	22.58	16.92	18.65	15.88	15.36	14.98	15.76	15.00	14.13	16.73	13.56	13.26	11.09	10.80	10.08	9.340	8.308	9.677	8.322	8.571	8.194	9.370	9.362	8.498	10.37	10.31	10.43	10.48	12.26
570.0	368.8	501.5	276.2	249.0	215.3	136.4	111.6	75.12	58.35	57.62	55.00	94.09	300.3	91.56	44.89	52.83	 2433	9999.9	 4535	44.49	30.98	27.98	24.08	18.46	21.94	15.60	14.31	14.36	14.25	15.63	12.99	14.39	14.11	11.61	11.30	10.96	11.46	9.049	8.694	9.107	8.759	9.293	10.03	9.156	8.315	7.951	8.580	9.953	10.40	9.714	10.55
572.0	587.5	462.0	240.4	257.6	193.4	146.2	129.6	78.98	62.20	59.12	43.06	65.73	330.6	130.9	46.90	44.93	759.5	9999.9	9999.9	65.26	36.28	30.58	23.48	22.51	22.49	17.49	17.20	14.98	17.35	15.46	14.99	16.13	13.75	13.02	11.74	10.42	11.00	9.454	10.80	8.464	9.241	9.455	8.729	8.725	8.720	7.622	9.722	10.09	9.167	9.401	12.61
574.0	900.7	394.6	344.2	250.7	137.3	142.1	111.7	73.98	67.01	73.27	58.19	68.58	284.9	173.0	47.71	45.48	204.2	9999.9	9999.9	183.1	34.87	31.18	25.88	22.31	19.04	18.60	16.03	15.97	16.08	14.41	15.94	16.20	13.42	14.71	12.27	9.314	9.857	9.542	9.084	8.630	9.464	8.843	7.877	8.318	8.940	9.611	7.696	9.041	10.84	10.63	9.985
576.0	582.2	397.6	230.0	342.8	199.3	121.2	123.4	78.51	61.10	55.43	48.19	61.98	231.5	236.2	57.68	51.00	85.30	9999.9	9999.9	697.4	34.99	31.93	26.36	20.40	19.68	17.20	17.39	15.68	14.58	15.39	14.49	16.55	15.47	13.10	12.47	12.42	9.711	10.42	8.800	8.748	8.896	8.922	8.099	9.455	9.108	10.06	9.690	8.753	10.14	10.14	9.809
578.0	727.4	253.1	443.1	342.3	168.3	117.1	107.2	75.50	63.66	62.55	53.79	45.76	195.7	268.7	57.40	49.03	66.87	 6822	9999.9	 2155	40.19	33.84	25.10	24.82	19.08	21.01	17.62	16.12	15.11	14.56	13.07	17.73	15.07	14.91	11.97	11.67	10.26	8.978	9.618	8.435	9.201	9.194	8.732	8.054	8.363	9.442	8.835	10.24	10.61	10.12	10.54
580.0	983.6	301.3	356.2	247.0	287.4	222.5	99.60	100.5	73.45	53.07	59.47	52.91	146.8	293.6	70.69	42.64	55.67	 2798	9999.9	 5636	44.13	33.27	33.60	25.14	20.76	17.62	17.53	14.77	17.00	14.67	15.41	15.26	17.63	14.65	13.39	11.22	10.33	8.582	11.06	7.517	8.235	8.820	7.990	9.238	8.816	9.719	8.894	8.003	10.28	10.23	10.91
582.0	911.4	516.0	263.9	276.1	323.9	163.4	141.7	107.2	79.03	67.49	61.27	39.08	107.5	318.6	87.43	52.91	53.20	834.1	9999.9	9999.9	58.43	36.33	32.31	23.22	22.51	19.28	19.08	16.25	17.42	17.34	17.05	14.09	16.40	15.01	13.56	11.53	10.46	9.358	9.645	8.271	9.163	7.863	8.652	7.544	8.755	8.465	10.34	9.492	9.394	9.825	10.82
584.0	442.0	287.2	191.9	321.8	240.9	190.1	101.2	93.23	63.25	57.32	45.16	51.62	69.35	342.6	139.4	45.19	55.03	227.0	9999.9	9999.9	162.2	39.43	30.72	23.07	22.28	20.33	16.00	17.68	15.55	16.70	15.31	14.75	14.93	14.35	14.27	13.73	11.47	10.65	9.939	8.919	8.560	8.477	8.101	9.587	8.529	10.17	9.970	8.835	8.328	9.996	9.972
586.0	727.7	592.5	406.6	322.1	253.5	163.2	98.99	120.0	84.06	64.53	52.96	41.94	60.83	327.5	198.2	45.22	47.96	82.19	9999.9	9999.9	595.3	40.70	29.95	27.93	27.31	16.49	16.80	18.81	17.36	14.96	15.08	12.78	15.19	15.36	15.11	15.53	10.69	9.821	10.90	10.79	6.079	9.014	9.214	7.969	8.203	9.237	9.807	9.427	9.653	11.54	11.69
588.0	870.8	461.7	528.0	457.8	255.3	184.5	140.7	99.01	70.10	56.18	55.31	44.95	58.73	262.8	237.7	53.81	46.82	63.63	 7632	9999.9	 1819	44.67	33.51	27.92	27.70	19.60	21.43	18.97	15.79	16.22	16.12	14.88	16.70	15.60	16.18	11.24	12.79	10.86	12.20	9.389	7.370	8.945	8.717	7.977	7.078	8.623	8.287	11.04	9.057	8.656	11.20
590.0	935.6	599.2	608.7	230.8	351.1	138.4	123.5	80.33	110.4	87.80	72.11	38.07	48.23	190.8	303.4	63.79	54.71	60.86	 3121	9999.9	 4967	52.63	35.38	29.67	26.21	19.89	22.96	20.00	14.72	15.47	16.80	15.11	17.31	15.55	15.27	13.81	12.44	11.22	10.17	9.758	7.482	8.008	7.985	9.169	9.432	7.612	8.495	9.582	9.265	9.673	10.02
592.0	 1401	496.5	480.1	390.4	344.5	142.6	154.5	93.81	110.4	67.83	58.17	47.85	50.12	152.6	351.5	70.27	50.21	58.08	941.6	9999.9	9999.9	67.99	36.44	31.45	26.85	22.46	20.94	19.95	21.25	14.89	16.46	14.41	15.99	15.69	15.18	13.09	15.35	12.20	10.71	9.414	9.095	9.299	7.733	7.665	8.429	8.125	9.310	9.219	10.47	9.912	10.34
594.0	 1067	560.9	555.5	463.6	209.6	252.8	155.0	114.2	122.3	84.12	43.26	46.24	53.09	102.7	364.5	102.0	58.94	53.47	255.4	9999.9	9999.9	170.7	37.96	29.70	29.15	24.37	19.55	20.13	19.99	15.81	14.65	15.58	14.90	16.24	15.08	15.38	14.73	12.97	10.68	10.85	10.16	8.143	9.505	6.831	7.432	7.835	8.877	9.430	9.742	8.970	9.859
596.0	 1752	399.9	455.2	434.8	322.1	201.9	155.5	111.2	99.22	86.57	61.01	49.54	51.25	65.44	364.9	132.6	55.52	55.39	99.99	9999.9	9999.9	620.5	43.33	37.70	28.23	25.15	23.03	20.63	15.86	14.88	13.39	15.34	16.08	16.03	15.48	16.69	15.24	12.29	12.91	11.44	10.12	9.825	8.462	9.063	8.230	7.868	9.256	8.701	9.974	9.642	10.14
598.0	 2838	271.4	385.4	433.5	222.0	192.0	147.1	150.6	88.36	87.41	65.22	60.34	52.03	61.02	345.4	206.3	63.49	59.88	72.54	 7977	9999.9	 1946	50.53	38.91	30.36	24.18	22.86	22.15	21.17	18.72	15.69	16.39	14.67	15.11	15.45	15.16	18.27	15.13	12.48	11.27	10.92	9.635	7.102	8.951	8.274	8.971	7.394	8.951	9.241	8.686	10.18
600.0	 2426	619.6	543.7	372.2	161.4	231.1	131.5	110.8	82.39	77.12	71.44	45.47	52.77	64.05	284.1	249.3	69.25	55.70	62.93	 4461	9999.9	 3677	51.91	39.95	31.03	28.55	25.32	18.78	21.44	17.32	17.04	15.15	16.18	18.09	14.32	17.64	14.63	15.00	13.08	11.90	12.72	10.17	7.831	8.219	8.297	9.339	9.213	8.061	7.741	9.462	9.342
