Sample:	'1
File name:	GF1.FD3
Run Date:	13:17:32, 06/01/2016
Operator:	elisabeth
Comment:	'

Instrument
Model:	F-7000 FL Spectrophotometer
Serial Number:	1910-003
ROM Version:	5J14000 03

Instrument Parameters
Measurement type:	3-D Scan
Data mode:	Fluorescence
EX  Start WL:	200.0 nm
EX  End WL:	450.0 nm
EX Sampling Interval:	5.0 nm
EM  Start WL:	250.0 nm
EM  End WL:	600.0 nm
EM Sampling Interval:	2.0 nm
Scan speed:	12000 nm/min
EX Slit:	5.0 nm
EM Slit:	5.0 nm
PMT Voltage:	700 V
Response:	0.01 s
Corrected spectra:	On
Shutter control:	On
Contour interval:	10.000

Instrumental Response
EX (200 to 600nm)  Slit:5.0/20.0nm  PMT Voltage:400V
EM (200 to 600nm)  Slit:5.0/20.0nm  PMT Voltage:250V
EM (500 to 900nm)  None
EX (500 to 900nm)  None

Data Points
	200.000	205.000	210.000	215.000	220.000	225.000	230.000	235.000	240.000	245.000	250.000	255.000	260.000	265.000	270.000	275.000	280.000	285.000	290.000	295.000	300.000	305.000	310.000	315.000	320.000	325.000	330.000	335.000	340.000	345.000	350.000	355.000	360.000	365.000	370.000	375.000	380.000	385.000	390.000	395.000	400.000	405.000	410.000	415.000	420.000	425.000	430.000	435.000	440.000	445.000	450.000
250.0	435.6	277.0	171.0	144.2	102.2	132.1	355.5	181.3	55.57	 2478	9999.9	 3980	66.56	11.89	8.088	7.222	6.872	5.494	4.321	4.312	3.908	3.828	3.136	3.130	3.117	2.851	2.434	2.907	2.845	2.874	2.649	2.021	2.244	2.319	2.394	1.958	2.308	1.915	1.954	1.891	1.887	1.850	1.723	1.615	1.603	1.610	1.285	1.171	1.274	1.260	1.177
252.0	418.5	264.6	222.5	178.3	100.8	102.0	278.2	303.4	69.47	569.7	 6849	 8926	 1108	13.41	9.476	7.009	6.832	5.423	5.271	4.489	3.881	4.368	3.471	3.011	2.735	2.607	2.713	2.620	2.239	2.864	2.769	2.586	2.264	2.507	2.542	2.028	1.725	1.683	1.836	2.073	1.858	1.941	2.029	1.561	1.568	1.262	1.171	1.450	1.350	1.052	0.890
254.0	490.4	348.9	245.5	177.0	118.7	81.25	188.3	341.1	121.2	124.1	 3231	9999.9	 3540	75.39	10.33	7.003	6.784	5.351	5.965	4.343	4.122	4.257	3.376	3.301	3.454	2.450	2.742	2.481	2.726	2.451	2.483	2.571	2.564	2.421	2.228	1.796	2.135	2.086	2.134	1.966	2.076	1.808	1.666	1.908	1.701	1.117	1.322	1.317	1.102	1.091	1.150
256.0	467.4	252.5	219.9	144.2	117.1	72.84	106.8	324.4	212.9	52.53	962.4	 9123	 7704	582.3	11.27	10.74	6.780	6.618	5.550	4.363	3.769	3.483	3.077	3.277	3.605	2.934	2.942	3.098	2.429	2.681	2.087	2.303	2.656	2.218	2.016	2.223	1.820	2.184	1.973	1.699	2.292	1.987	1.825	1.895	1.602	1.516	1.367	1.204	1.204	1.076	0.927
258.0	466.4	329.4	232.9	176.3	107.2	67.43	69.86	243.9	310.7	63.97	206.3	 5065	9999.9	 2414	23.68	10.67	7.147	6.318	5.517	5.086	3.849	3.507	3.681	3.294	2.428	2.520	2.666	2.182	2.726	2.640	2.301	2.458	2.181	2.309	2.190	2.218	2.102	2.013	1.952	1.942	1.757	1.790	2.149	1.757	1.570	1.510	1.313	1.406	1.469	1.440	1.376
260.0	532.7	311.9	235.6	169.3	121.9	77.12	62.54	156.3	364.1	115.7	65.22	 1839	9999.9	 6200	212.6	10.57	8.435	5.836	6.419	5.692	4.533	3.376	3.928	2.935	3.077	2.850	2.852	2.400	2.637	2.730	2.114	2.404	2.247	2.207	2.432	2.151	2.262	1.779	1.840	1.856	1.743	1.658	1.720	1.909	1.577	1.484	1.284	1.394	1.186	0.997	1.250
262.0	562.3	333.2	258.1	173.3	112.2	54.98	60.23	80.73	354.8	206.2	41.89	450.5	 7841	9999.9	 1263	12.30	8.269	8.120	5.514	5.274	4.307	4.122	4.094	3.476	2.924	3.186	2.916	2.995	2.321	2.899	2.433	2.253	2.305	2.345	2.333	1.990	2.320	2.196	1.973	2.082	1.859	1.505	1.934	1.832	1.720	1.663	1.415	1.424	0.948	1.131	1.076
264.0	568.6	293.8	232.8	202.5	133.4	82.44	57.12	51.45	249.9	308.5	60.76	94.05	 3604	9999.9	 4298	79.65	9.064	7.054	7.126	5.408	4.174	4.140	3.319	3.592	3.080	2.955	3.025	2.617	2.411	2.369	1.948	2.144	2.466	2.395	2.167	2.442	2.050	2.038	1.576	2.111	2.119	1.738	1.767	1.875	1.763	1.697	1.795	1.250	1.095	1.258	0.972
266.0	555.2	278.4	262.1	169.0	109.0	102.2	52.95	50.01	146.1	366.5	114.7	43.89	 1064	9999.9	 9534	634.3	11.36	7.917	7.207	5.857	5.116	4.248	3.782	3.077	2.973	2.697	2.697	2.751	2.606	2.345	3.000	2.207	2.538	2.333	2.444	2.643	2.313	2.048	1.788	2.052	2.052	1.758	1.783	1.982	1.593	1.632	1.885	1.215	1.216	1.155	1.326
268.0	468.8	307.1	248.0	150.5	145.9	85.25	70.94	46.25	72.18	336.6	216.7	36.70	231.3	 5792	9999.9	 2720	21.37	9.002	7.481	6.230	5.340	4.429	3.792	3.841	3.088	2.794	2.643	2.682	2.657	2.355	2.439	2.061	2.607	1.972	2.219	2.128	2.047	1.807	1.711	1.871	1.758	1.644	1.737	1.890	1.657	1.877	1.607	1.355	1.333	1.404	1.213
270.0	507.3	330.5	240.2	206.7	126.0	101.0	64.30	41.70	51.38	251.7	323.8	58.93	60.44	 2031	9999.9	 7615	211.6	10.10	7.916	6.715	5.118	4.835	3.756	3.148	2.980	2.962	2.811	3.221	2.916	2.536	2.461	2.262	2.510	2.036	2.596	2.077	2.087	1.710	2.207	1.748	1.857	1.659	1.677	1.894	2.136	1.837	1.573	1.647	1.346	1.312	1.150
272.0	492.4	339.9	273.9	220.4	155.0	90.50	55.41	43.33	35.64	139.4	369.4	120.7	36.07	499.0	 8565	9999.9	 1380	12.85	7.949	7.252	5.775	5.472	3.650	3.698	3.631	2.740	3.003	2.686	2.664	2.526	2.358	2.133	2.253	2.191	2.410	2.092	2.124	1.951	2.070	1.937	1.792	1.687	1.783	1.630	1.654	2.035	1.745	1.543	1.512	1.187	1.475
274.0	454.9	381.9	249.6	183.7	152.6	72.24	64.98	45.07	36.11	74.39	339.4	227.0	34.51	105.4	 3606	9999.9	 5386	73.12	8.567	6.427	5.425	5.773	4.054	4.327	3.343	3.486	2.920	2.703	2.862	3.013	2.348	2.532	2.877	2.224	2.343	1.984	2.099	1.903	2.146	1.654	1.852	1.450	1.805	2.038	1.915	1.647	1.914	1.591	1.476	1.150	1.202
276.0	560.1	371.5	244.9	249.8	151.9	75.08	68.21	49.52	37.54	40.44	227.7	336.5	62.31	37.73	 1004	9999.9	9999.9	609.1	9.785	7.920	6.233	5.338	4.585	3.631	3.779	3.117	2.921	2.929	2.640	2.765	2.404	2.626	2.654	2.134	2.550	2.234	1.836	1.990	2.172	1.792	1.448	2.178	1.642	2.141	2.234	1.807	1.839	1.696	1.323	1.420	1.040
278.0	539.9	349.1	295.0	213.6	143.2	108.7	66.18	52.00	37.67	33.82	111.1	392.3	116.0	31.01	205.9	 5761	9999.9	 3130	21.04	9.006	5.731	5.505	4.503	4.077	3.814	3.524	3.159	2.397	2.387	2.831	2.303	2.186	2.372	1.857	2.653	2.446	2.132	2.426	2.317	1.762	1.836	1.833	1.844	1.659	2.006	2.044	1.819	1.883	1.556	1.441	1.019
280.0	530.6	369.1	321.0	215.2	151.5	116.4	61.91	56.01	31.84	31.76	60.88	346.6	216.5	35.92	56.23	 1882	9999.9	 9090	212.5	10.53	6.989	6.141	4.913	4.844	3.488	3.036	3.038	2.670	2.830	2.579	2.316	2.416	2.262	2.499	2.288	2.139	2.529	1.798	2.062	1.969	1.775	1.775	1.876	1.918	1.775	1.885	1.768	1.770	1.611	1.666	1.200
282.0	499.3	369.1	326.6	223.6	181.8	115.0	69.24	49.85	40.53	29.18	35.22	213.4	352.7	56.63	34.15	439.4	 9052	9999.9	 1530	13.69	7.764	6.275	5.979	5.000	4.432	3.847	2.857	2.824	2.671	2.833	2.362	2.651	2.430	2.084	1.969	2.206	2.218	2.150	1.882	1.908	1.654	1.884	1.858	2.067	2.005	1.748	1.840	1.590	1.516	1.822	1.437
284.0	585.4	481.8	358.1	227.6	170.0	121.2	76.37	47.87	38.97	28.70	27.88	112.0	406.6	126.8	31.18	100.3	 3676	9999.9	 6048	73.54	9.497	6.539	5.000	5.122	3.861	3.540	3.245	3.027	2.772	2.721	2.506	2.588	2.621	2.375	1.981	2.025	2.226	1.840	1.840	1.586	1.655	1.910	2.137	2.096	1.777	1.641	1.732	1.802	1.638	1.972	1.399
286.0	651.1	398.5	378.1	245.6	152.2	148.4	83.07	52.06	44.06	28.92	24.09	51.52	349.1	239.8	41.93	45.87	966.9	9999.9	9999.9	685.0	10.36	7.260	5.909	5.060	4.731	3.907	3.176	2.613	3.089	2.606	2.670	2.364	2.490	2.223	2.298	2.227	2.086	2.174	2.060	1.923	1.780	1.985	2.089	1.800	1.812	1.585	1.806	1.570	1.566	1.808	1.234
288.0	612.1	408.0	365.8	252.2	185.7	138.4	96.82	60.47	41.01	30.43	27.41	35.33	232.2	354.0	64.56	39.48	204.3	 6414	9999.9	 3503	18.58	7.744	6.750	6.371	4.859	4.044	3.474	3.135	3.228	3.037	2.722	2.351	2.201	2.147	2.040	2.380	2.226	2.004	2.100	1.804	2.069	2.079	2.067	1.913	1.858	1.508	1.760	1.757	1.730	1.635	1.379
290.0	634.4	474.0	329.4	244.9	234.3	141.5	110.7	78.37	46.98	32.76	26.94	27.32	128.3	400.1	136.3	41.10	66.89	 2087	9999.9	9999.9	175.4	9.654	7.526	6.662	5.127	4.419	3.605	3.288	3.172	2.976	2.759	2.678	2.743	2.190	2.303	2.128	2.151	2.085	1.937	1.998	2.085	2.043	1.641	1.634	1.688	1.972	2.020	1.529	1.561	1.711	1.390
292.0	702.2	477.0	354.6	282.2	229.3	179.0	114.9	75.69	52.09	33.08	31.72	29.95	69.75	366.5	245.5	52.50	50.63	468.7	9999.9	9999.9	 1368	12.69	8.413	6.862	4.890	4.420	3.797	3.110	3.395	2.862	2.951	2.772	2.917	2.063	2.321	2.527	2.151	1.799	1.972	2.097	2.095	2.189	1.839	1.841	1.718	1.695	1.748	1.860	1.798	1.634	1.782
294.0	758.8	416.3	412.1	335.0	254.1	206.5	134.9	87.68	44.42	35.67	37.47	34.60	47.19	244.1	362.2	84.13	50.60	114.0	 4058	9999.9	 6085	50.00	9.345	6.636	5.484	4.363	3.834	3.686	3.285	2.809	3.021	2.474	2.232	2.209	2.286	2.366	2.116	2.105	2.072	2.134	1.943	1.844	1.921	1.803	1.608	1.744	1.941	1.968	1.867	1.666	1.806
296.0	784.9	508.8	413.5	312.9	243.8	200.6	144.2	88.73	50.70	41.88	38.96	29.96	40.07	136.9	423.3	157.0	51.45	59.86	 1002	9999.9	9999.9	550.4	11.75	7.770	6.238	4.763	4.239	3.536	3.263	3.194	2.742	2.417	2.101	2.265	2.487	2.334	2.096	2.250	2.156	1.751	1.931	1.900	2.028	1.810	1.843	1.934	1.868	1.501	1.861	1.698	1.362
298.0	764.1	498.7	337.4	349.7	278.7	217.4	153.6	96.90	60.90	43.96	37.29	36.38	44.98	79.09	371.0	274.4	68.58	54.92	204.7	 6174	9999.9	 3357	19.66	8.229	6.125	5.244	4.209	4.105	3.449	2.885	3.037	2.522	2.401	2.486	2.230	2.517	2.355	2.047	2.072	2.069	2.160	2.189	1.861	1.848	1.793	1.927	1.777	1.739	1.719	1.867	1.688
300.0	812.7	529.9	429.0	325.0	302.1	229.7	173.7	113.8	68.58	40.99	43.17	41.78	46.01	61.20	256.2	392.3	96.24	61.94	69.03	 1906	9999.9	9999.9	174.3	9.844	6.724	5.094	4.847	3.979	3.945	3.004	3.171	2.551	2.381	2.624	2.412	2.082	2.282	2.552	2.321	2.108	2.131	1.902	2.136	1.861	2.125	1.956	1.783	1.910	1.582	1.996	1.728
302.0	707.0	495.2	395.1	316.8	297.5	235.0	189.3	125.8	67.69	46.97	45.80	41.41	50.04	60.87	155.0	427.6	164.3	63.67	52.24	405.1	9999.9	9999.9	 1485	12.49	8.736	5.579	4.835	3.809	3.645	3.015	3.419	2.346	2.594	2.550	2.327	2.120	2.081	1.957	1.825	1.944	1.630	2.027	1.942	1.926	1.878	1.920	1.932	1.916	1.795	1.606	1.926
304.0	677.9	460.7	473.9	337.5	310.3	276.5	195.6	112.9	72.90	51.78	55.48	46.79	49.22	64.73	105.4	372.7	276.1	71.97	52.76	95.26	 4354	9999.9	 6330	49.43	8.308	6.594	5.343	4.293	3.913	2.878	3.061	2.968	2.827	2.716	2.640	2.092	2.206	2.367	1.982	1.994	1.768	2.145	2.072	2.080	1.972	1.718	1.799	1.707	1.802	1.881	1.935
306.0	697.1	524.3	402.4	408.3	317.4	287.1	219.9	124.2	73.09	56.23	49.95	51.59	52.24	64.33	87.34	268.5	385.1	99.27	55.57	49.03	 1092	9999.9	9999.9	599.7	10.47	6.969	5.563	4.487	4.765	3.428	3.437	3.049	2.877	2.284	2.421	2.279	2.071	2.334	2.065	1.837	2.035	1.953	2.050	2.065	1.920	1.766	1.929	1.754	1.687	2.077	1.701
308.0	805.7	630.8	459.7	382.8	346.8	311.0	225.5	140.2	85.50	57.65	48.46	57.36	60.62	68.34	83.39	170.8	438.7	162.0	58.22	41.94	205.3	 7115	9999.9	 3634	17.76	8.185	6.517	5.511	3.797	3.247	3.175	3.097	2.864	2.617	2.459	2.459	2.193	2.180	2.304	2.091	1.776	2.254	2.206	2.180	2.030	1.978	2.229	1.995	1.628	2.046	1.599
310.0	794.6	667.3	506.8	383.9	356.7	336.3	245.9	132.1	83.59	65.54	50.78	56.06	67.07	79.51	86.97	124.5	385.5	267.1	64.61	43.41	57.88	 2236	9999.9	9999.9	170.8	10.45	6.950	5.436	4.459	3.775	3.394	3.258	2.752	2.941	2.529	2.370	1.961	2.128	2.049	2.121	1.953	1.967	2.168	1.857	2.103	1.815	1.941	1.681	1.864	2.110	1.698
312.0	873.6	562.1	548.0	435.0	387.4	357.4	245.8	119.4	92.65	64.66	57.21	57.59	69.32	79.59	92.17	105.6	279.5	368.9	93.93	45.23	36.37	451.2	9999.9	9999.9	 1535	11.85	7.214	5.858	5.034	3.978	3.984	3.073	3.123	3.084	2.230	2.302	2.470	2.088	2.192	2.129	2.162	2.329	2.287	2.025	1.982	1.947	1.838	1.655	1.640	2.112	1.947
314.0	750.7	674.8	553.3	408.2	377.1	339.4	253.1	158.6	98.52	69.96	62.62	63.91	72.71	86.37	99.36	108.4	192.2	417.7	149.5	52.37	32.14	91.87	 4183	9999.9	 6616	45.26	9.145	6.423	5.300	4.840	3.685	3.324	2.789	2.673	2.579	2.476	2.380	2.113	2.027	2.042	2.105	2.016	2.391	1.997	1.776	1.801	1.849	1.873	1.907	2.205	2.234
316.0	820.7	631.6	575.6	391.4	400.3	378.2	269.4	158.7	92.05	73.76	65.70	72.45	78.70	89.54	100.6	114.3	147.4	376.5	251.2	58.97	32.08	36.67	 1006	9999.9	9999.9	513.1	10.51	7.271	5.205	5.032	3.732	3.706	3.225	3.169	2.448	2.302	2.273	2.141	2.124	2.194	2.126	2.114	2.183	2.333	1.850	2.440	2.201	2.231	1.806	1.895	1.932
318.0	801.5	576.9	546.2	483.7	392.9	369.1	300.8	174.8	98.98	70.39	70.51	74.64	82.11	98.27	108.4	121.3	129.1	284.3	345.4	79.69	31.47	27.06	179.9	 6476	9999.9	 3233	17.79	7.066	5.564	4.883	4.426	3.742	3.632	2.881	2.452	2.759	2.347	2.256	2.425	2.358	2.191	1.742	2.326	2.148	1.934	2.198	2.313	1.820	1.798	2.122	1.817
320.0	834.7	708.1	518.8	517.1	435.7	438.9	298.8	181.4	105.5	75.84	74.07	70.65	86.25	98.42	113.7	122.5	130.5	196.7	396.3	132.1	36.35	25.68	46.34	 1967	9999.9	9999.9	154.5	9.891	6.418	5.359	4.267	3.421	3.193	2.889	2.931	2.557	2.510	2.588	2.172	1.928	2.216	2.089	2.185	2.473	2.062	2.328	2.113	2.042	2.496	1.970	2.208
322.0	762.3	615.2	475.4	480.4	423.2	445.2	315.7	195.6	104.7	65.30	72.35	79.88	93.22	107.7	123.4	125.0	127.6	149.0	354.5	219.6	39.98	26.38	26.29	376.6	9999.9	9999.9	 1472	12.47	7.057	5.948	4.772	4.029	3.446	3.290	2.939	2.218	2.309	2.306	2.098	2.247	2.241	2.035	2.051	2.128	2.318	2.460	2.628	2.181	1.945	2.179	1.603
324.0	849.8	590.5	549.4	519.9	452.5	439.2	331.4	191.5	102.5	90.06	74.52	88.02	95.07	105.7	121.2	126.1	135.4	131.8	260.7	303.7	51.79	24.49	23.38	76.67	 4072	9999.9	 6251	40.82	7.841	6.331	5.864	4.232	3.484	3.150	2.519	2.664	2.345	2.245	2.094	2.477	2.311	2.285	2.104	1.968	2.399	2.285	2.385	2.383	2.207	2.320	1.972
326.0	836.0	676.1	537.1	532.6	484.9	430.2	302.7	210.4	114.2	95.50	79.85	86.73	103.7	110.7	127.7	125.5	131.4	129.2	180.9	341.6	96.35	25.66	21.09	29.83	957.1	9999.9	9999.9	537.7	9.992	6.902	5.457	4.116	3.808	3.336	2.807	2.816	2.782	2.241	2.195	1.977	2.299	2.294	1.963	2.249	2.176	2.212	2.051	2.542	2.291	2.152	2.187
328.0	760.4	613.2	533.7	523.1	473.7	449.2	335.2	200.6	110.4	81.70	79.51	87.97	104.5	119.5	120.4	131.8	138.6	121.6	133.2	307.0	162.4	27.01	21.54	22.44	168.3	 6699	9999.9	 3297	16.97	7.532	5.659	4.823	3.593	3.265	2.950	2.922	2.773	2.486	2.609	2.077	2.298	2.209	2.289	1.990	2.139	2.087	1.853	2.163	2.184	2.046	1.941
330.0	822.0	661.5	534.5	510.3	480.7	466.8	315.9	178.1	126.6	85.23	82.82	92.73	107.0	116.8	126.6	134.0	137.1	127.9	111.1	232.0	238.7	39.05	21.02	19.50	43.35	 2128	9999.9	9999.9	149.9	9.521	6.292	5.342	4.435	3.143	3.110	2.770	2.841	2.611	2.189	2.229	2.135	2.256	2.445	2.422	1.999	1.984	2.298	2.080	2.550	2.178	2.170
332.0	829.1	654.4	477.4	511.1	470.0	436.1	330.4	179.8	119.2	96.25	90.42	87.03	107.6	114.1	129.5	135.2	138.0	124.8	107.7	153.2	291.6	73.41	20.52	19.43	22.22	417.9	9999.9	9999.9	 1395	12.07	6.981	5.565	4.472	3.582	3.532	3.245	2.804	2.832	2.326	2.183	2.228	2.462	2.019	2.194	2.114	2.027	2.042	2.110	2.335	2.351	2.043
334.0	845.9	657.1	554.9	502.3	453.3	442.4	339.7	189.3	129.5	101.8	98.25	95.51	105.0	118.6	135.6	136.7	138.0	127.0	106.0	105.0	278.5	136.5	23.55	20.04	20.27	81.12	 4085	9999.9	 6051	36.19	8.210	5.455	4.682	3.922	3.638	3.484	2.530	2.583	2.371	2.118	2.265	2.250	2.392	2.242	2.102	1.872	2.092	2.480	2.323	2.230	2.126
336.0	836.8	610.6	527.3	530.2	473.3	443.1	313.6	199.9	123.0	96.62	97.84	97.26	107.8	113.6	125.2	131.5	139.9	129.4	107.0	81.04	210.9	208.2	36.21	19.44	18.91	28.48	970.3	9999.9	9999.9	489.7	9.187	7.165	4.848	4.407	3.908	3.116	3.176	2.525	2.437	2.043	1.985	2.320	2.149	2.194	1.916	1.933	2.146	2.216	2.097	2.199	2.165
338.0	 1045	663.1	534.9	495.6	426.5	435.2	322.3	203.1	113.9	96.77	97.79	100.2	107.7	116.3	123.2	129.9	135.4	123.3	104.9	77.04	136.3	254.9	63.43	18.74	17.59	19.66	167.3	 6467	9999.9	 3061	16.17	7.675	5.561	4.827	3.837	3.043	2.929	2.669	2.425	1.845	1.776	2.342	2.196	2.198	1.973	1.840	2.244	2.077	2.057	2.298	2.294
340.0	895.1	673.3	520.3	498.5	476.6	389.5	331.9	188.3	124.2	99.35	91.64	101.8	118.6	123.1	124.4	131.7	136.9	125.0	103.5	70.36	86.08	248.1	120.1	22.18	17.46	18.91	41.56	 2021	9999.9	 9718	152.0	8.901	6.718	4.944	4.268	3.461	2.984	2.896	2.519	2.795	2.378	2.433	1.897	2.280	1.940	2.006	2.282	1.981	2.350	2.248	2.228
342.0	871.6	708.2	612.2	526.8	475.9	409.5	317.6	185.4	113.5	99.80	104.3	101.3	111.8	118.5	125.5	133.6	135.2	120.1	101.3	72.72	58.53	194.3	181.2	32.07	18.18	18.46	20.15	384.2	 9705	9999.9	 1449	12.31	6.690	5.020	3.925	3.506	3.206	2.714	2.757	2.328	2.182	2.268	1.961	1.910	1.978	1.860	2.299	2.281	2.075	2.274	1.993
344.0	876.0	622.1	546.2	496.4	445.6	415.2	295.3	201.4	122.5	112.1	102.0	104.6	114.0	119.0	120.8	127.1	132.8	124.9	101.1	71.42	52.19	122.0	227.4	59.76	18.89	17.70	17.21	72.91	 3864	9999.9	 5995	38.50	8.667	6.234	4.776	4.011	3.250	3.073	2.797	2.497	2.272	2.397	2.020	2.018	2.189	2.196	2.196	2.238	1.875	2.135	2.150
346.0	740.8	593.5	528.0	536.3	476.0	385.0	314.3	190.3	132.3	102.0	106.2	107.8	116.3	122.1	122.9	128.5	130.3	119.4	101.0	73.41	50.17	74.07	219.6	103.4	20.48	17.61	18.19	26.01	915.6	9999.9	9999.9	507.9	10.34	6.400	5.034	4.370	3.291	3.057	2.905	2.678	2.441	2.144	2.019	2.136	2.378	2.436	2.086	2.064	1.990	2.214	2.165
348.0	635.9	588.7	578.8	455.7	448.7	345.0	297.2	174.6	125.5	112.3	99.95	112.2	108.9	117.2	121.4	124.0	127.2	116.8	99.57	72.39	49.69	51.26	175.3	160.0	28.01	19.44	17.83	18.72	159.1	 6517	9999.9	 2976	16.05	6.627	5.560	4.348	3.622	3.113	2.768	2.534	2.386	2.372	2.173	2.579	2.157	2.096	2.197	1.875	2.214	2.008	1.933
350.0	758.9	578.2	489.0	458.1	429.4	346.5	274.8	184.6	137.9	108.3	102.1	104.2	117.6	116.3	117.7	116.9	124.6	116.6	96.01	69.67	49.67	42.37	115.5	206.3	50.17	19.64	18.46	18.94	39.96	 2102	9999.9	 9201	154.2	9.079	5.554	4.536	3.651	3.171	2.991	2.418	2.551	2.215	2.414	2.388	2.080	2.186	1.972	1.957	1.945	2.051	1.906
352.0	798.8	596.6	513.3	455.4	416.2	363.4	264.9	175.3	143.8	115.0	101.6	108.7	110.7	119.3	113.7	117.6	124.6	108.1	99.85	72.07	51.56	40.37	71.02	204.0	89.70	22.52	19.52	19.46	22.38	408.9	 9340	9999.9	 1402	11.34	6.495	5.332	3.935	3.461	3.172	2.744	2.403	2.144	2.447	2.073	2.278	2.497	2.454	2.038	1.992	1.960	1.931
354.0	752.1	589.7	422.3	407.2	411.0	334.6	277.2	181.0	138.4	113.3	115.7	111.9	118.1	115.5	113.4	118.0	120.2	110.7	97.51	71.05	52.29	41.12	48.54	164.9	142.0	29.99	20.83	20.40	20.01	79.05	 3733	9999.9	 5765	39.55	7.210	5.525	4.392	3.550	2.972	2.767	2.627	2.636	2.213	2.165	2.324	2.136	2.416	2.149	2.290	2.471	2.077
356.0	795.5	512.0	448.0	440.1	372.4	367.2	284.3	178.4	125.8	111.9	112.5	112.0	111.8	113.2	117.2	112.9	115.1	104.6	92.73	69.71	52.08	40.83	41.64	112.0	179.1	45.16	22.08	21.01	20.23	29.22	905.3	9999.9	9999.9	512.2	9.662	5.718	4.675	3.777	3.171	2.566	2.522	2.599	2.393	2.641	2.229	2.052	2.306	2.214	2.256	2.272	1.953
358.0	856.9	463.2	579.1	442.4	418.7	321.7	265.9	183.9	137.7	111.4	107.9	120.1	118.2	118.9	114.0	112.8	112.7	106.7	94.82	72.22	55.18	42.78	38.94	72.54	187.6	78.01	25.76	20.51	20.17	20.74	159.2	 6190	9999.9	 2953	16.01	7.083	4.737	4.393	3.233	3.063	2.869	2.484	2.542	2.342	2.650	2.315	2.082	2.124	2.278	2.188	1.852
360.0	780.7	541.9	507.1	436.2	373.0	340.2	271.9	198.1	135.9	117.5	115.2	119.1	119.3	115.1	116.6	115.2	114.1	102.4	92.22	74.78	55.04	45.17	41.34	50.92	163.1	124.8	30.66	24.05	22.23	20.46	41.10	 1989	9999.9	 8810	146.5	8.286	5.581	4.650	3.918	3.208	2.606	2.674	2.328	2.355	2.517	2.515	2.256	2.206	2.213	1.957	2.148
362.0	673.5	549.1	463.3	427.9	412.6	383.9	245.7	188.2	139.6	127.9	120.4	127.6	124.8	113.3	118.5	112.4	110.8	103.1	91.53	72.44	56.61	48.68	42.15	44.00	119.3	164.1	46.42	27.14	24.08	21.73	23.36	389.3	 8965	9999.9	 1350	11.68	6.648	4.934	3.946	3.422	3.018	2.749	2.436	2.333	2.155	2.334	2.068	2.114	1.993	2.386	1.793
364.0	636.7	601.2	513.8	407.9	405.7	323.4	246.8	185.3	150.0	132.3	127.9	123.4	116.1	113.8	113.8	111.0	108.7	104.9	93.02	67.56	57.21	48.01	44.84	43.60	81.03	177.6	73.99	29.37	26.07	23.64	20.76	75.03	 3688	9999.9	 5259	39.60	7.118	5.175	4.575	3.431	2.829	3.007	2.344	2.424	2.268	2.299	2.381	2.243	2.118	2.555	1.982
366.0	716.9	602.9	459.7	446.2	394.0	332.1	269.4	174.7	142.3	137.5	123.5	121.2	114.7	121.5	113.5	109.4	109.3	105.2	93.39	72.35	61.78	51.67	46.02	44.88	57.84	163.6	114.7	33.19	27.75	24.89	20.82	27.68	903.0	9999.9	9999.9	521.3	9.746	6.155	4.711	3.645	3.193	2.629	3.092	2.465	2.255	2.213	2.274	2.475	2.292	1.994	2.031
368.0	688.2	593.8	425.4	417.8	378.0	335.4	229.6	202.3	148.1	138.7	125.6	117.1	127.0	120.6	120.0	113.0	110.2	100.8	89.54	73.45	60.23	53.94	48.50	45.53	49.22	124.2	151.3	47.41	29.08	26.42	22.40	21.42	156.2	 6056	9999.9	 2855	15.28	7.280	5.381	4.009	3.302	3.015	2.863	2.696	2.288	2.238	2.017	2.111	2.231	2.052	2.105
370.0	546.7	474.7	483.2	407.8	364.6	318.8	231.3	199.3	173.2	135.3	135.1	127.4	131.5	123.3	108.2	114.0	105.2	103.1	89.34	76.77	58.92	55.21	50.96	47.34	47.87	91.10	168.4	70.90	32.08	25.96	24.68	21.38	39.89	 1966	9999.9	 8491	158.3	8.317	5.426	4.398	3.518	3.187	3.038	2.814	2.091	2.447	2.224	1.922	2.242	2.376	1.827
372.0	672.6	524.5	449.2	437.0	334.6	346.9	270.2	196.0	166.6	139.9	137.0	139.0	130.4	124.0	118.7	110.3	107.5	101.5	89.43	80.49	62.54	59.05	55.58	50.28	49.31	65.57	161.0	103.8	35.47	28.59	25.21	22.07	22.56	389.6	 8975	9999.9	 1299	11.98	6.187	4.160	4.282	3.421	2.540	2.626	2.201	2.557	2.252	2.068	2.315	2.450	1.920
374.0	730.2	534.2	451.0	458.6	345.4	295.5	274.4	200.4	159.4	154.4	140.9	131.7	133.3	122.4	111.1	110.7	102.4	97.50	91.80	80.01	66.78	58.72	56.64	53.60	50.90	57.37	129.5	138.8	47.80	31.99	27.69	23.06	19.05	73.89	 3729	9999.9	 5121	40.21	7.190	4.848	4.213	3.406	2.910	2.939	2.300	2.146	2.432	2.124	2.397	2.397	2.128
376.0	741.5	610.8	439.1	444.6	377.2	320.3	254.1	203.0	179.6	154.5	144.8	137.9	133.6	129.5	111.8	111.8	106.0	98.13	95.21	81.96	72.90	66.32	62.27	54.65	54.07	53.52	97.18	163.4	67.06	34.57	29.85	24.28	18.89	27.05	933.7	9999.9	9999.9	515.3	8.943	5.039	4.691	4.406	2.916	2.824	2.551	2.340	2.278	2.654	1.745	2.329	2.319
378.0	823.7	539.8	489.4	447.1	384.8	327.5	256.5	222.8	184.3	173.0	146.6	142.5	136.5	135.2	116.2	112.6	109.4	103.0	92.18	81.86	72.62	67.02	63.71	61.18	59.46	57.08	73.43	155.7	97.99	38.01	33.29	24.59	19.73	18.28	163.5	 5698	9999.9	 2853	15.46	6.247	4.638	4.115	3.421	3.523	3.279	2.577	2.425	2.397	1.993	2.146	2.200
380.0	836.1	546.2	499.9	418.1	370.0	336.4	270.4	226.7	181.7	170.0	158.2	147.9	142.9	129.3	123.1	112.2	110.6	103.0	100.5	85.76	80.13	72.83	68.60	63.59	61.67	59.60	63.51	136.1	129.5	46.75	33.69	28.48	21.76	18.15	39.84	 1790	9999.9	 8278	167.4	8.303	5.354	4.139	3.570	3.517	2.978	2.588	2.495	2.436	2.010	2.463	2.208
382.0	698.5	602.4	533.3	440.7	425.7	339.0	276.1	241.8	192.1	181.9	158.1	150.5	141.3	134.5	126.5	118.6	111.4	108.2	99.50	88.53	79.70	74.19	71.76	68.67	67.65	62.15	63.63	101.7	153.1	64.99	36.50	29.19	23.91	19.61	20.47	350.3	 8117	9999.9	 1335	11.09	5.502	4.804	3.924	3.340	3.078	2.546	2.365	2.206	2.225	2.257	2.075
384.0	744.6	567.0	526.3	431.2	389.7	336.6	297.0	246.8	202.8	184.9	172.3	156.4	151.6	138.3	126.8	124.4	114.4	108.6	98.89	90.94	83.69	79.57	73.85	75.15	74.21	65.78	65.49	82.54	154.2	87.92	39.70	32.20	26.64	20.41	17.59	66.59	 3271	9999.9	 5055	43.54	6.501	5.473	4.160	3.233	2.495	2.759	2.622	2.542	2.538	2.331	2.343
386.0	750.2	606.5	446.6	483.1	389.5	347.9	297.7	246.3	220.4	194.1	170.9	169.4	160.5	139.0	134.7	121.3	112.6	111.5	103.1	93.47	87.56	81.17	78.13	78.26	73.48	70.18	66.32	71.13	136.7	117.1	47.75	32.71	27.43	22.23	18.51	24.67	810.8	9999.9	9999.9	529.7	9.172	5.474	4.690	4.525	3.132	3.101	2.927	2.458	2.327	2.553	2.372
388.0	813.8	570.6	463.0	450.8	437.1	350.5	295.3	250.9	213.1	204.4	184.7	164.4	155.2	143.2	132.3	122.6	109.8	112.5	103.8	93.58	91.27	88.55	86.64	81.22	76.89	74.13	68.54	67.79	110.7	143.5	61.14	35.89	29.04	22.87	19.33	18.61	142.0	 5476	9999.9	 2683	15.20	5.792	4.453	4.060	3.472	3.196	2.851	2.566	2.397	2.686	2.183
390.0	862.3	542.8	495.9	456.4	447.9	363.6	296.5	255.5	229.0	210.4	181.1	158.3	154.2	141.8	134.1	125.3	116.9	113.8	103.8	98.10	92.52	89.23	88.29	84.38	82.00	76.96	71.34	71.62	88.81	150.5	81.82	40.91	31.43	24.78	20.17	17.52	35.25	 1779	9999.9	 7571	150.6	7.661	5.157	4.603	3.333	2.810	2.723	2.872	2.310	2.435	2.437
392.0	 1348	571.8	529.4	462.7	407.9	366.2	318.6	270.3	230.8	208.6	189.4	180.1	158.4	148.1	134.5	127.7	121.3	113.1	109.5	100.9	93.20	93.21	90.34	89.63	85.53	80.65	74.73	71.60	77.80	138.0	106.8	44.67	33.96	27.34	22.76	17.78	19.45	355.4	 8197	9999.9	 1235	9.969	5.793	4.733	3.941	3.225	2.790	2.335	2.695	2.285	2.330
394.0	 1642	570.0	527.5	455.0	454.1	353.3	322.4	271.0	258.1	216.8	192.6	189.5	168.6	155.2	141.1	132.0	123.5	117.2	113.6	105.3	100.4	97.44	95.76	93.87	88.75	85.83	78.33	76.56	71.87	118.4	128.8	56.66	36.66	28.57	23.66	18.76	16.03	66.78	 3362	9999.9	 4833	38.11	6.893	4.729	4.221	3.242	2.986	2.935	2.783	2.649	2.763
396.0	 2002	633.8	511.6	460.5	415.8	380.6	338.8	282.2	252.6	209.9	210.8	179.5	174.2	156.6	141.5	134.6	123.0	119.8	116.0	108.0	101.6	100.9	99.61	97.68	92.27	87.80	83.02	80.85	72.43	97.38	140.5	73.24	41.36	31.66	24.71	20.35	16.95	23.01	835.3	9999.9	9999.9	461.4	8.976	5.371	3.950	3.443	3.109	2.747	2.630	2.707	2.430
398.0	 2907	715.9	545.2	480.1	468.8	394.1	339.3	300.8	252.7	232.9	213.1	190.5	177.5	163.3	138.7	137.7	126.9	123.4	119.7	108.3	103.9	101.5	103.1	98.59	96.83	89.83	87.16	81.76	75.68	80.47	136.2	96.72	45.70	33.00	26.32	22.36	17.92	17.30	145.6	 5350	9999.9	 2473	14.41	6.358	4.283	3.629	3.345	2.815	2.823	2.523	2.536
400.0	 3249	 1212	551.5	511.0	413.3	364.1	344.2	301.7	253.5	246.2	207.5	194.0	179.6	164.7	145.9	137.0	128.9	120.1	115.0	113.3	106.8	108.0	103.5	101.8	99.70	96.97	89.84	85.50	76.79	76.68	118.6	118.9	53.38	36.50	30.63	22.80	19.19	16.15	35.56	 1677	9999.9	 7171	135.4	7.778	5.097	3.865	3.753	2.842	3.055	2.675	2.220
402.0	 3442	 2052	529.0	422.0	447.8	385.8	348.8	287.7	270.3	234.9	225.5	199.5	185.2	158.8	151.2	142.7	134.1	130.2	118.1	112.8	109.4	112.2	109.8	106.2	105.1	101.5	93.97	86.14	79.66	75.11	96.02	134.0	67.89	38.02	31.03	25.36	20.29	16.92	20.19	330.5	 7509	9999.9	 1125	10.57	5.596	4.585	3.699	3.159	2.785	2.574	2.727
404.0	 3220	 3108	596.3	395.5	445.3	379.3	351.0	290.1	268.6	245.8	224.4	196.7	184.6	167.3	155.0	140.5	136.7	129.5	122.3	113.2	112.9	111.3	112.8	108.7	106.3	104.4	99.07	88.85	82.80	75.18	84.28	130.3	88.36	43.06	31.44	27.33	22.34	17.18	17.20	62.25	 3077	9999.9	 4243	30.53	6.495	4.453	4.183	2.964	3.083	2.675	2.501
406.0	 2640	 3915	642.6	578.4	425.2	399.9	341.2	319.8	275.8	242.0	238.9	219.3	190.3	175.5	152.5	145.0	135.3	131.9	123.7	120.3	110.2	115.0	113.5	114.6	109.8	105.1	100.0	93.64	84.35	81.16	77.13	118.2	109.5	51.82	34.95	29.01	23.29	19.27	16.19	22.60	768.8	9999.9	9999.9	393.7	8.592	5.335	3.975	3.563	2.876	3.367	2.561
408.0	 1894	 5047	997.3	538.5	464.2	424.4	371.5	336.3	289.5	243.1	237.2	205.1	193.0	183.7	155.2	145.9	135.2	131.0	125.6	124.7	119.2	120.5	115.2	115.5	111.3	106.7	102.7	95.15	89.19	81.04	76.59	100.8	122.4	63.00	36.23	29.59	25.17	21.14	17.02	16.86	134.0	 5282	9999.9	 2202	11.94	6.170	4.724	3.502	3.391	3.155	2.951
410.0	 1248	 5327	 1791	528.2	446.7	405.4	358.4	340.5	298.0	273.6	239.6	212.9	196.7	171.6	161.7	151.1	138.6	132.3	130.2	124.3	121.5	123.4	119.0	121.2	118.9	112.3	106.7	98.20	93.32	81.73	75.59	84.62	124.9	80.31	42.80	32.74	27.37	22.71	17.90	16.45	33.13	 1688	9999.9	 6666	96.54	7.432	4.594	3.787	3.423	3.375	3.246
412.0	832.5	 5084	 2681	633.6	490.2	405.2	367.4	327.3	289.3	267.0	230.8	220.3	203.5	176.2	161.5	156.3	139.7	136.3	132.8	124.6	128.2	121.7	122.2	122.6	119.4	118.5	110.0	103.0	94.77	87.22	78.41	79.29	115.4	100.9	48.98	35.94	28.54	23.82	20.79	15.85	18.62	339.9	 7606	9999.9	850.1	9.796	5.216	4.476	3.224	3.017	2.623
414.0	791.6	 4426	 3914	495.7	418.1	374.5	365.0	335.4	290.4	250.3	252.8	227.7	208.6	185.1	164.9	151.3	146.8	135.6	135.1	128.3	128.3	123.1	126.3	127.0	123.5	118.1	111.9	106.3	98.25	91.43	81.62	78.28	100.2	116.6	57.77	38.88	32.47	25.13	21.41	17.71	15.68	64.13	 3119	9999.9	 3641	27.71	6.696	4.465	3.760	3.239	3.188
416.0	738.9	 3417	 4991	638.2	543.9	429.3	384.5	358.7	292.1	272.8	247.5	227.9	208.6	183.3	168.2	153.6	150.2	134.5	133.6	129.5	129.8	130.5	129.2	126.7	126.3	118.8	114.3	107.0	100.3	91.46	81.94	78.05	86.90	121.1	70.68	40.59	32.70	27.76	22.49	18.37	15.56	22.78	784.2	 9865	 8766	349.7	8.562	4.982	4.683	3.857	2.570
418.0	759.9	 2389	 6250	 1023	498.0	425.4	411.3	346.2	298.4	287.9	255.0	242.7	210.3	196.7	172.9	157.4	149.9	139.6	134.3	126.2	129.6	125.5	123.6	129.5	128.6	120.9	116.5	110.6	103.1	93.01	83.99	78.10	76.08	112.7	87.74	45.71	34.49	28.75	22.77	19.51	16.04	16.58	137.3	 5083	9999.9	 2012	12.04	6.244	4.877	4.102	3.110
420.0	928.4	 1470	 6065	 1647	498.9	412.9	375.7	346.9	286.9	284.5	260.0	240.0	215.6	187.3	173.2	168.0	153.6	139.6	134.7	128.6	129.9	128.7	128.8	133.1	130.0	126.7	120.5	114.1	105.1	93.61	87.91	79.43	72.59	103.2	102.5	54.99	37.61	30.94	25.22	22.18	17.73	14.63	33.77	 1659	9999.9	 5974	96.18	7.238	4.607	4.436	3.355
422.0	867.5	 1035	 5716	 2805	523.2	462.7	401.2	363.6	294.8	283.1	255.3	243.5	215.5	191.8	182.2	164.6	156.8	140.3	136.3	130.9	126.0	134.5	127.1	136.2	130.1	125.9	119.4	115.3	106.2	101.1	91.28	80.36	74.70	88.45	110.1	66.65	39.95	32.50	25.85	22.69	18.30	14.43	17.87	341.8	 7707	9999.9	897.0	9.473	5.449	4.156	3.666
424.0	849.3	843.1	 4733	 3905	528.1	443.8	414.7	387.4	308.7	281.4	263.0	231.4	221.2	197.9	178.1	167.4	158.4	148.3	134.8	133.6	129.2	132.6	131.4	135.3	133.2	127.7	122.8	119.2	110.6	101.8	89.76	84.03	71.99	78.23	110.1	80.89	44.96	32.99	27.12	23.39	18.78	15.79	15.24	61.84	 3211	9999.9	 3705	27.74	6.351	4.589	3.510
426.0	822.6	679.8	 3508	 5506	648.3	444.4	412.4	364.0	307.4	288.2	254.2	238.6	224.6	204.6	182.8	174.6	156.9	140.6	140.0	130.8	131.0	136.5	132.0	138.9	133.9	131.6	127.8	118.1	111.3	103.2	94.72	85.21	76.09	73.44	100.1	96.83	52.35	36.71	29.13	25.46	21.68	16.35	14.30	21.72	841.2	 9859	 8767	346.6	7.864	5.456	3.788
428.0	902.1	685.4	 2487	 6421	959.0	501.5	434.6	382.8	328.2	280.0	266.7	237.6	235.3	196.7	186.1	164.8	163.8	147.7	138.3	135.1	133.1	134.9	133.2	141.0	131.7	129.7	125.1	121.0	113.5	106.1	94.06	89.79	78.13	72.49	87.02	105.9	58.85	37.41	30.89	25.95	21.67	17.37	14.04	14.86	150.9	 5242	9999.9	 1925	11.61	6.162	4.201
430.0	995.8	766.9	 1579	 6406	 1658	463.2	437.8	367.2	323.3	285.3	270.7	252.8	227.6	200.5	178.8	169.9	159.6	147.6	138.9	133.4	135.8	131.7	133.9	139.8	135.7	133.7	128.4	122.5	116.2	104.2	97.51	88.16	78.95	71.94	75.97	99.58	72.87	42.42	32.00	26.72	22.72	19.82	15.31	13.74	34.35	 1755	9999.9	 5865	79.94	6.420	4.655
432.0	970.2	831.8	 1050	 5695	 2599	454.4	428.5	373.7	316.4	294.6	267.5	245.6	226.4	199.7	191.8	166.6	159.1	147.4	139.5	133.8	131.6	136.6	133.2	140.0	135.5	131.5	130.7	121.8	116.3	107.8	99.30	88.67	80.10	70.94	69.79	95.09	87.34	45.51	34.44	28.80	24.73	20.21	16.46	13.59	16.13	363.8	 7491	9999.9	784.6	8.905	5.943
434.0	966.1	813.6	792.6	 4775	 3826	486.1	415.5	373.4	328.6	296.6	280.3	248.1	228.4	203.8	191.8	178.2	161.5	145.9	140.4	135.5	132.0	136.1	134.5	140.0	141.2	135.7	128.5	125.5	116.0	109.5	101.7	91.33	80.95	72.02	67.88	84.67	96.56	55.19	36.74	30.16	24.38	21.08	17.00	13.24	13.55	66.60	 3145	9999.9	 3460	23.17	6.254
436.0	 1035	879.5	681.0	 3526	 5146	626.4	401.1	374.7	331.9	293.4	280.2	244.4	227.1	205.9	186.8	166.7	160.3	152.7	139.2	138.4	131.2	134.7	134.6	138.2	140.1	135.4	131.1	126.7	119.8	109.7	101.1	91.30	86.37	75.72	67.88	76.24	98.81	65.72	37.05	30.78	25.77	21.98	17.83	15.13	13.31	22.17	814.0	 9763	 8337	287.8	7.249
438.0	833.9	901.9	636.3	 2414	 6269	956.6	385.9	370.7	338.0	302.4	265.0	246.8	224.3	208.5	187.3	173.0	163.2	148.5	137.6	137.8	130.3	140.0	136.6	139.3	139.3	134.7	129.7	129.4	118.5	109.9	102.7	93.24	87.96	77.75	68.35	66.49	92.46	78.18	42.42	32.83	26.66	23.32	18.99	15.90	14.46	14.60	142.9	 5096	9999.9	 1800	10.70
440.0	797.1	704.8	622.7	 1448	 6500	 1612	431.2	380.1	330.3	282.0	279.6	247.7	231.7	206.3	192.6	173.3	162.5	151.1	139.3	139.3	136.2	137.3	136.9	141.2	142.6	135.4	128.5	128.6	120.8	113.9	103.5	94.64	88.22	76.94	69.83	63.96	82.24	88.28	48.49	34.32	28.34	24.76	20.04	15.94	14.75	13.09	32.43	 1654	9999.9	 5624	80.90
442.0	829.7	855.4	689.4	916.3	 5744	 2687	422.8	351.4	331.3	295.9	281.0	246.6	230.4	206.4	194.5	171.8	164.8	152.4	143.5	138.4	135.5	138.5	136.8	138.2	135.9	134.5	135.0	124.6	124.8	109.1	104.3	97.39	89.82	78.71	70.85	64.53	74.28	93.51	58.16	37.33	28.91	25.45	21.49	17.17	14.98	12.81	16.23	331.6	 7187	9999.9	771.4
444.0	 1052	931.3	732.2	625.1	 4821	 4003	420.7	347.4	314.7	307.6	267.8	252.0	230.1	213.7	189.7	171.7	160.7	145.5	141.0	137.7	132.1	135.9	137.4	137.1	137.8	136.9	129.8	125.1	121.7	108.0	103.6	95.35	87.98	81.37	74.03	63.99	65.11	86.20	70.01	40.36	31.37	26.37	21.89	18.04	14.57	13.29	12.95	61.20	 2984	9999.9	 3152
446.0	752.6	874.0	707.2	595.0	 3619	 5438	536.7	350.0	347.3	293.4	272.6	266.8	229.6	209.4	198.0	178.1	166.3	149.6	143.6	140.5	133.9	136.5	135.2	135.6	136.7	138.3	133.6	124.9	122.1	114.7	103.2	96.76	89.75	84.25	74.58	67.27	63.02	80.73	77.95	45.83	31.36	27.80	22.05	19.64	15.72	14.47	12.58	20.78	772.3	 9332	 7894
448.0	907.6	779.5	683.3	632.6	 2333	 6622	817.4	364.6	322.9	303.8	281.6	242.4	222.0	199.8	199.5	177.2	163.9	147.7	138.2	133.3	132.1	137.0	136.5	138.0	133.0	135.5	130.9	122.7	118.8	110.9	106.0	100.4	89.52	84.68	75.22	67.77	60.84	69.18	83.54	53.68	34.86	29.54	23.97	20.59	17.10	14.81	13.38	14.52	133.8	 4787	9999.9
450.0	849.2	802.2	884.4	610.6	 1414	 6835	 1594	357.5	328.4	295.0	274.8	242.0	229.8	213.2	183.8	182.5	159.7	156.1	141.9	133.7	137.9	137.7	134.1	136.2	134.7	135.7	129.2	125.6	121.1	113.2	105.8	100.2	92.17	83.10	76.12	68.25	62.23	62.00	81.29	62.49	35.78	30.40	24.49	20.74	18.89	15.26	13.51	13.75	31.65	 1545	9999.9
452.0	913.8	812.3	785.8	600.9	816.3	 6053	 2659	357.3	327.2	295.8	281.7	249.1	232.6	211.3	189.2	185.3	160.1	155.2	145.8	136.0	134.7	135.6	136.0	136.6	138.1	138.8	125.3	128.4	124.0	113.5	107.2	101.4	94.24	83.99	76.26	68.35	64.38	59.22	75.25	70.81	41.49	30.44	25.85	21.55	19.74	16.57	14.54	13.05	15.73	317.8	 7013
454.0	840.9	717.6	825.2	668.4	583.7	 5082	 4158	381.7	330.9	313.2	268.9	253.2	245.0	223.9	195.1	177.9	160.3	151.5	145.1	140.4	136.2	134.6	137.1	137.1	135.5	135.5	129.1	127.1	120.8	115.2	106.1	100.6	91.55	86.38	78.40	71.40	63.21	58.00	66.00	75.69	47.85	31.71	27.81	22.87	20.20	17.56	14.31	13.34	12.75	60.24	 2851
456.0	812.2	790.2	802.5	663.5	563.5	 3688	 5611	525.4	319.9	295.9	283.8	254.6	238.5	214.3	192.0	184.2	165.7	151.5	140.4	138.3	131.9	129.3	132.7	137.1	133.8	130.5	130.2	124.7	123.6	113.0	105.8	100.3	93.04	84.47	78.35	71.82	63.20	58.53	59.35	78.69	53.97	33.56	27.96	24.39	21.17	18.78	15.10	13.63	13.07	20.61	714.9
458.0	845.6	724.8	724.8	675.8	535.2	 2284	 6660	900.3	323.5	303.8	271.2	258.7	226.9	215.0	194.3	180.1	164.3	150.9	144.2	136.1	133.1	135.1	132.0	131.4	134.5	133.8	127.4	123.8	121.1	114.8	108.1	100.4	95.58	87.80	78.39	72.19	64.77	59.59	56.64	73.89	67.48	37.49	28.88	25.49	21.70	19.29	16.43	14.40	12.95	14.28	124.0
460.0	873.9	630.9	718.7	706.8	556.2	 1294	 7093	 1809	314.2	299.1	264.2	262.1	239.8	221.5	196.2	184.2	167.1	148.3	142.6	137.0	133.6	137.8	134.7	134.1	132.6	133.1	133.0	124.3	120.1	112.8	105.5	102.2	91.13	88.85	80.70	72.42	67.27	59.47	55.15	66.41	68.69	42.20	31.59	27.91	22.52	19.68	17.68	14.89	12.71	13.80	30.02
462.0	883.8	808.1	607.9	712.0	551.5	761.4	 6441	 3070	320.8	285.5	269.7	258.3	235.8	210.6	190.6	180.2	162.2	155.3	140.8	136.6	135.3	130.8	136.8	130.4	131.1	131.6	127.4	122.1	114.8	113.8	106.6	99.78	92.98	86.36	81.63	74.02	66.46	62.12	53.04	60.19	74.15	49.97	32.35	27.50	24.27	21.22	18.27	14.63	14.60	12.96	16.14
464.0	931.6	698.7	673.7	759.7	548.4	547.5	 5119	 4740	355.5	307.9	276.4	255.4	237.5	214.4	194.1	178.5	162.6	153.9	144.7	139.1	132.8	130.4	132.3	128.6	132.9	129.7	122.9	124.3	118.8	109.7	105.9	98.68	92.98	88.52	81.23	73.67	66.58	63.49	54.21	53.55	71.91	57.87	34.89	28.21	24.23	20.83	19.29	16.72	14.23	12.48	13.90
466.0	873.8	851.2	621.1	710.5	554.9	439.7	 3824	 6133	508.4	295.9	271.3	257.4	223.0	214.7	198.0	176.8	160.8	150.8	146.8	138.1	131.0	131.7	127.3	131.4	127.5	128.4	119.8	121.9	116.6	111.2	106.5	101.1	92.11	85.49	81.51	73.84	67.67	60.90	52.92	51.06	64.81	62.55	37.25	29.36	26.00	22.00	19.33	17.74	15.44	13.02	12.78
468.0	945.4	720.3	664.0	710.9	588.4	445.0	 2299	 7207	963.9	291.2	281.4	255.6	233.3	208.2	188.9	174.5	165.0	145.4	138.0	136.1	125.7	128.6	129.6	129.1	126.6	128.4	120.3	119.4	118.3	109.1	103.0	102.4	93.22	85.20	80.79	74.27	69.06	63.66	54.42	50.82	57.45	66.45	43.50	29.44	25.05	23.55	20.96	18.55	16.26	13.53	13.05
470.0	907.7	655.1	667.4	697.3	598.6	487.7	 1281	 7457	 1913	283.0	261.1	247.5	234.2	213.8	182.9	178.4	157.5	147.6	144.1	136.5	131.6	128.5	126.9	124.9	127.5	127.2	119.3	124.0	115.0	112.0	105.9	97.31	93.25	87.56	79.29	74.38	69.95	61.29	56.04	50.98	53.05	65.96	51.51	31.45	26.99	25.42	21.38	18.65	17.33	15.24	13.04
472.0	 1020	862.7	730.1	698.7	631.5	467.5	740.2	 6456	 3226	304.4	283.0	251.9	231.3	210.4	192.0	181.8	158.8	151.3	145.5	136.4	131.7	128.2	129.7	126.8	127.7	124.0	121.2	116.9	114.0	107.0	102.5	99.75	94.17	89.82	82.72	75.80	69.66	60.60	57.56	51.19	48.95	61.96	59.12	35.46	28.98	24.30	23.49	20.01	18.43	15.55	13.22
474.0	938.1	773.3	639.6	670.8	653.2	481.7	485.7	 4998	 4895	315.4	278.7	237.3	225.2	199.7	192.9	171.2	160.7	152.7	137.7	132.7	131.0	123.6	127.4	128.8	122.5	122.3	119.7	115.0	111.7	107.3	104.5	98.60	93.08	85.00	82.32	73.63	68.64	62.52	57.77	52.34	47.73	57.63	61.76	39.43	29.76	25.05	22.66	21.58	18.83	16.55	13.65
476.0	 1013	813.6	645.1	656.5	710.2	464.7	407.8	 3342	 6321	458.7	266.8	240.7	238.8	208.1	195.9	169.4	163.7	151.7	137.7	135.6	125.2	124.4	132.9	127.9	128.6	118.9	117.6	115.2	111.5	106.1	105.2	96.76	94.27	86.17	84.16	78.43	70.68	63.23	54.97	52.47	45.71	52.26	63.84	46.51	30.58	26.66	23.82	21.50	18.91	17.45	14.90
478.0	804.6	727.9	842.1	563.0	638.8	516.9	363.2	 1995	 7406	925.9	265.6	241.0	221.4	207.7	186.3	174.0	165.1	149.7	140.9	134.5	122.8	126.2	122.9	122.3	119.8	122.2	115.1	109.1	109.8	102.4	100.3	100.0	91.34	85.28	81.57	75.74	69.21	63.82	56.70	50.39	48.15	46.63	61.76	51.66	32.41	26.75	24.59	21.99	19.83	17.68	15.23
480.0	936.8	635.0	601.7	561.4	620.7	558.0	377.0	 1084	 7248	 1855	271.3	228.8	228.3	212.1	188.0	169.1	162.9	144.2	140.8	126.3	129.7	122.9	121.2	118.8	118.4	114.8	113.9	107.6	104.2	102.4	98.77	97.57	89.66	84.49	77.56	74.43	70.20	63.25	56.87	51.21	47.88	42.68	55.39	58.57	36.55	27.20	25.57	22.46	20.90	19.16	15.27
482.0	989.1	669.9	585.7	573.7	625.4	575.4	372.0	602.8	 6145	 3206	268.5	230.7	219.4	207.3	181.9	164.9	156.0	148.3	135.8	127.8	125.9	120.2	121.8	118.1	116.7	114.1	110.7	107.8	104.3	98.91	98.49	93.55	89.49	87.62	80.46	72.74	66.55	62.35	56.89	51.97	49.33	43.76	49.63	58.18	40.03	29.04	26.23	22.61	20.90	19.33	16.36
484.0	891.3	667.5	638.9	593.1	555.3	598.1	382.0	414.7	 4650	 4719	316.3	230.2	217.7	206.0	185.7	167.0	150.0	150.1	140.0	130.2	120.9	124.2	115.5	115.9	116.2	115.4	108.3	107.9	102.7	99.34	95.52	90.94	88.96	82.93	80.26	74.21	67.96	62.73	57.34	52.15	47.74	43.49	43.36	57.88	47.83	31.81	27.37	23.54	21.80	19.69	18.39
486.0	925.2	736.2	647.9	491.2	526.6	593.9	407.6	355.2	 3063	 6150	462.8	243.7	223.3	207.1	186.9	168.4	150.4	143.3	140.2	124.8	121.7	119.5	119.0	116.8	110.9	113.0	112.1	108.0	101.4	99.98	96.29	92.77	89.55	82.59	79.24	73.38	68.56	62.54	57.11	53.93	46.98	42.23	41.13	52.87	49.50	34.07	27.53	24.79	21.51	20.40	17.42
488.0	 1003	739.9	635.0	529.5	475.3	541.0	397.3	328.6	 1778	 7147	923.5	227.9	216.3	187.2	181.8	165.8	151.2	149.6	137.8	127.2	124.6	118.2	112.5	115.3	109.3	110.6	106.1	102.6	101.1	99.12	93.39	89.24	88.40	79.24	78.68	72.56	66.02	63.23	55.21	51.94	46.97	42.32	39.00	46.95	55.02	37.36	28.11	25.39	22.60	20.32	19.15
490.0	846.8	720.4	676.7	539.9	436.1	584.4	424.0	333.5	956.3	 6987	 1894	230.0	211.4	198.1	177.8	158.9	153.8	141.0	127.1	129.4	116.4	116.1	109.9	112.2	108.2	108.2	103.7	100.8	97.35	97.28	90.32	87.10	85.19	80.49	77.08	72.45	64.50	61.93	53.62	51.66	46.88	41.98	38.28	41.45	51.95	41.48	30.10	25.54	24.08	21.24	18.57
492.0	904.7	624.0	627.0	513.5	451.5	492.4	436.1	308.8	513.7	 5989	 3321	225.5	211.5	183.6	179.2	160.1	144.1	137.0	132.0	122.6	115.7	114.3	110.6	107.8	104.3	105.6	104.8	96.06	98.08	94.30	88.62	85.99	82.00	78.95	73.52	69.18	61.76	63.51	56.55	51.23	45.44	40.22	39.71	41.69	49.65	45.68	30.99	25.49	23.36	21.47	18.48
494.0	989.3	643.0	632.9	531.1	454.1	471.4	485.3	301.8	359.5	 4340	 4808	247.5	200.9	200.0	175.1	160.7	156.6	145.4	126.1	122.2	118.0	112.8	108.7	105.9	106.2	103.4	99.78	95.26	96.71	95.28	88.76	86.22	80.54	76.65	71.56	68.03	64.54	62.13	55.89	49.42	46.51	43.11	36.87	37.19	44.60	48.01	34.63	26.48	24.43	21.98	20.30
496.0	 1103	673.3	621.6	558.3	460.8	434.2	511.5	322.6	286.8	 2840	 6247	426.9	200.9	185.6	179.2	167.9	151.7	137.2	123.2	120.2	117.0	107.3	107.3	104.6	105.9	100.2	98.03	95.09	93.45	91.26	87.62	82.57	80.38	77.37	70.61	67.53	65.24	58.94	54.82	52.29	47.24	43.70	38.97	37.11	39.01	48.65	38.46	28.06	24.13	22.34	20.42
498.0	 1018	702.7	606.5	489.4	456.7	446.5	520.7	348.7	275.4	 1749	 7090	870.6	202.2	188.2	174.0	160.7	147.2	140.5	130.2	116.2	114.9	107.5	102.9	107.4	101.5	99.65	95.13	94.10	93.05	89.40	83.46	83.28	80.50	75.78	70.41	69.28	64.34	58.18	54.27	50.92	45.78	42.50	39.61	36.51	36.96	47.15	42.27	29.00	25.76	21.56	21.41
500.0	892.8	749.8	694.4	506.2	451.9	389.3	465.2	388.8	262.5	952.6	 6984	 1796	200.3	185.8	170.1	161.9	141.8	134.9	121.6	117.6	113.1	108.3	107.9	101.8	100.3	98.42	93.86	91.39	88.22	87.76	85.31	81.75	77.78	75.60	68.23	67.11	60.67	58.66	54.68	52.40	45.74	42.85	38.91	35.61	35.38	44.92	45.76	30.87	25.93	22.93	21.06
502.0	766.4	798.1	634.6	580.1	385.3	392.9	459.8	372.0	264.7	497.6	 5921	 3197	199.8	171.7	165.2	155.5	142.1	139.3	115.7	114.1	109.7	104.3	98.24	100.8	98.28	93.12	88.18	92.40	85.83	85.78	80.30	77.26	76.75	73.08	68.11	66.14	61.21	57.94	55.04	50.90	45.62	40.84	38.50	35.61	33.36	39.76	47.79	33.76	26.30	23.57	20.58
504.0	 1006	813.1	621.0	588.0	448.3	370.3	439.3	435.5	251.9	291.8	 4277	 4754	223.8	184.0	174.4	147.6	141.6	133.5	114.7	112.5	102.9	106.6	102.3	96.05	97.60	92.08	91.82	87.42	85.15	81.00	83.03	73.78	74.80	71.93	67.85	62.47	61.35	54.81	53.50	49.99	44.91	45.00	38.17	34.89	34.24	37.56	47.76	39.09	26.45	24.97	21.69
506.0	889.3	705.2	685.8	555.4	488.4	355.3	411.0	467.8	286.5	248.4	 2828	 6120	357.9	177.8	164.6	145.5	141.0	130.6	112.4	119.4	108.1	101.9	96.96	98.24	95.51	90.93	88.13	86.84	82.81	80.91	81.07	74.70	76.24	71.85	67.14	62.58	60.02	53.73	51.44	48.55	45.24	42.26	38.57	36.04	33.55	35.81	44.60	42.20	30.30	25.05	21.92
508.0	 1114	694.9	639.3	574.4	435.5	342.7	378.4	495.9	274.6	249.6	 1730	 7020	735.8	178.3	158.0	145.1	143.0	131.8	119.1	109.8	104.4	98.80	97.96	93.19	90.46	88.13	88.43	83.30	80.45	81.91	79.26	75.83	74.25	69.26	68.33	61.39	58.43	55.75	53.98	49.77	43.78	43.55	38.32	36.42	34.14	33.11	39.28	44.90	31.51	24.82	22.52
510.0	922.0	821.4	701.5	575.6	417.7	368.8	336.8	476.3	312.5	249.6	909.3	 7099	 1517	182.9	168.6	154.6	140.6	121.8	117.7	106.4	100.3	103.7	93.47	92.38	90.58	87.43	83.02	84.02	78.85	81.16	79.17	75.58	72.76	68.69	65.72	63.65	58.37	53.60	50.81	46.80	46.42	43.38	39.52	35.85	35.69	31.87	36.32	43.06	35.56	25.29	23.08
512.0	977.4	807.7	637.5	534.6	476.0	358.3	300.8	454.4	334.8	231.3	441.7	 6222	 2866	182.2	160.3	143.8	131.8	126.9	116.7	108.2	102.6	100.5	93.19	89.67	93.43	86.50	82.52	80.99	79.46	76.16	76.45	71.73	71.08	70.24	64.23	62.03	57.03	55.27	50.83	49.52	43.78	41.42	39.48	36.54	35.47	31.97	33.84	41.62	37.84	28.91	22.19
514.0	 1010	641.0	561.7	541.3	472.9	367.5	336.0	408.6	325.9	217.8	266.4	 4552	 4572	209.4	150.4	151.8	132.5	127.4	116.1	109.7	103.5	98.27	91.30	90.68	85.71	84.66	77.61	78.91	75.43	72.53	71.75	72.70	66.26	64.88	61.73	59.80	54.06	51.47	49.98	47.29	42.96	40.60	39.68	35.58	33.88	31.42	31.66	38.71	42.69	29.21	23.24
516.0	 1057	775.7	596.4	509.5	432.3	350.2	306.8	390.3	372.8	230.9	217.5	 3005	 6151	340.5	154.9	139.7	132.4	126.4	119.7	104.2	103.2	100.8	96.55	90.27	81.76	82.40	77.92	77.30	74.80	69.93	71.91	68.57	67.22	61.89	62.01	57.50	53.51	49.10	48.51	44.46	43.50	40.80	39.90	36.48	34.05	31.49	30.52	36.53	41.35	31.47	22.68
518.0	930.2	806.6	588.7	499.5	443.7	327.0	319.8	339.5	401.7	232.7	216.0	 1777	 7309	745.5	156.3	138.7	129.3	116.0	116.0	109.1	101.0	94.11	92.32	85.56	85.40	81.12	81.18	76.14	71.73	71.38	70.39	68.10	64.93	62.04	60.61	56.21	55.01	49.33	46.10	44.10	42.13	43.46	38.57	34.38	32.10	32.20	31.38	33.50	41.20	33.84	23.27
520.0	 1047	720.7	666.0	472.5	492.6	366.2	264.6	325.1	400.8	258.6	206.2	928.2	 7670	 1597	158.4	138.9	124.0	116.6	111.7	105.8	100.7	95.82	87.64	87.79	81.41	80.23	81.69	73.93	71.42	67.53	67.42	64.94	63.54	59.42	58.51	55.91	52.11	50.54	45.02	44.49	42.34	41.24	40.11	36.22	32.07	31.34	33.34	29.70	38.67	37.30	25.29
522.0	 1086	739.3	634.1	473.1	488.4	406.1	298.4	281.8	428.3	250.2	207.4	419.2	 6808	 3156	162.0	137.3	131.6	120.4	107.1	105.3	96.21	93.81	85.93	84.86	79.95	79.74	74.35	75.47	67.81	68.34	70.42	65.37	63.00	59.99	60.93	54.76	50.92	49.43	47.00	44.34	41.10	39.98	39.18	35.28	35.24	33.67	31.73	30.23	35.76	38.97	30.28
524.0	 1187	732.5	629.3	589.3	439.3	334.5	284.0	273.8	402.0	267.3	211.7	228.4	 5179	 4909	176.9	135.4	122.5	112.7	112.5	101.8	91.11	90.53	82.35	81.24	76.66	79.03	74.89	71.22	68.04	68.48	64.62	64.18	60.74	58.37	57.22	52.83	51.34	48.46	46.13	44.17	41.52	37.26	39.22	36.99	31.47	32.21	29.02	28.17	31.11	39.62	32.55
526.0	782.1	803.2	609.2	548.0	411.8	321.6	314.0	249.6	379.6	314.3	197.5	215.2	 3479	 6568	302.5	136.8	129.1	110.6	110.8	97.41	92.18	90.33	84.89	81.84	77.19	76.61	70.65	67.62	68.89	66.36	66.86	60.63	59.59	59.43	55.05	52.14	49.03	48.95	44.37	42.67	41.28	38.19	37.87	35.59	31.55	29.99	29.89	28.57	29.27	37.34	34.16
528.0	 1146	785.7	627.5	555.5	368.7	388.9	304.5	226.5	354.4	318.2	198.7	191.0	 2067	 7787	685.4	140.1	122.5	116.1	107.3	97.13	91.21	87.80	84.24	83.33	78.90	78.40	71.22	65.21	69.28	64.21	64.73	61.72	57.78	58.68	56.70	51.29	48.44	47.06	42.10	42.35	39.39	37.58	37.05	35.22	35.02	31.12	29.80	29.03	28.02	35.50	34.83
530.0	 1033	733.0	636.8	600.1	463.5	346.7	271.4	235.1	308.8	352.2	205.9	176.0	 1003	 8174	 1560	134.6	121.0	117.4	101.9	95.14	88.86	89.43	80.57	82.22	75.27	72.54	71.02	66.07	65.94	61.33	61.78	59.00	58.40	54.99	53.83	50.12	49.06	45.78	43.51	40.86	39.07	37.65	35.00	32.86	32.82	31.27	28.80	29.81	27.55	31.00	36.88
532.0	895.4	827.2	609.7	543.8	496.7	320.4	284.2	276.8	265.9	350.0	210.4	180.5	433.8	 7354	 3068	134.7	124.5	118.5	101.9	96.69	90.21	85.51	84.36	80.21	77.34	74.79	70.84	65.96	63.97	59.35	63.63	57.52	57.03	54.67	52.66	50.84	49.14	45.25	42.86	39.90	38.52	37.93	33.54	34.47	33.38	31.90	29.57	29.25	27.63	29.67	35.49
534.0	 1298	768.8	623.5	496.0	446.3	328.4	312.9	263.6	264.3	402.6	224.6	177.5	230.2	 5535	 4998	155.5	120.9	114.2	105.0	93.17	85.81	86.67	83.90	77.34	75.52	70.62	67.89	67.37	63.01	60.91	59.76	56.45	57.10	55.08	54.15	47.96	47.26	43.87	40.75	40.16	37.79	36.01	35.09	32.46	31.47	32.14	29.71	26.03	26.55	27.03	35.07
536.0	 1292	676.1	554.3	582.5	388.6	316.5	304.1	269.3	235.3	378.1	245.8	168.7	173.0	 3605	 6882	302.3	118.9	107.8	102.4	92.64	87.14	84.05	76.08	75.77	73.90	69.13	68.93	62.45	60.65	59.54	57.47	57.04	53.08	54.84	49.75	50.07	47.88	42.85	41.67	39.96	36.46	37.03	34.55	33.11	33.77	31.67	30.10	27.71	27.66	25.76	29.53
538.0	 1093	833.7	651.1	537.5	410.6	333.5	304.3	261.3	235.1	355.4	284.5	179.4	162.0	 1977	 8319	726.8	124.0	106.5	101.2	89.53	80.77	81.09	79.72	76.90	72.30	70.08	67.31	63.58	60.77	57.37	59.33	56.05	52.36	52.20	49.44	46.92	42.39	43.53	41.77	39.27	36.40	35.71	34.05	32.30	30.29	33.02	29.43	27.47	26.77	25.10	27.37
540.0	 1031	989.9	635.7	572.4	408.0	328.0	262.2	238.9	221.1	323.6	308.7	182.8	175.2	930.6	 8902	 1667	118.1	112.0	93.68	92.33	81.89	82.80	73.35	73.65	72.01	64.11	62.69	63.64	59.43	58.74	58.19	55.68	51.57	50.10	50.23	46.52	45.06	42.79	39.20	37.49	34.88	34.75	33.12	33.17	30.41	30.99	29.80	29.38	25.57	24.83	26.79
542.0	943.3	637.4	691.8	563.6	438.7	330.4	297.3	236.5	226.5	280.5	348.3	187.7	152.8	375.7	 8058	 3304	115.4	107.0	99.26	89.34	84.83	82.21	75.47	69.11	70.86	66.76	62.35	58.93	57.98	55.87	53.72	53.54	52.10	50.36	46.21	46.04	44.73	40.79	36.62	38.33	35.43	34.91	33.93	30.22	28.53	29.82	28.77	27.69	26.38	25.68	25.56
544.0	 1439	832.3	632.0	457.5	427.6	343.4	308.3	208.0	224.9	246.9	346.7	178.1	159.3	197.0	 6150	 5562	146.6	105.8	95.17	86.81	82.31	77.41	72.50	67.17	67.61	65.39	59.82	60.46	60.28	56.83	53.37	52.47	51.57	49.75	46.87	42.57	41.70	41.31	38.93	37.84	34.19	33.44	32.75	30.21	28.46	28.91	29.27	25.85	26.84	25.94	22.42
546.0	 1418	839.5	643.9	469.4	411.5	301.1	292.7	213.0	212.6	203.6	382.4	187.3	154.2	162.9	 4002	 7764	297.6	102.5	93.59	92.05	79.79	73.68	73.59	69.07	64.23	64.77	59.54	60.55	55.47	53.50	53.48	51.35	47.79	46.95	46.01	41.79	41.14	38.02	39.05	33.67	35.95	32.42	31.83	30.88	29.96	27.82	28.67	26.80	26.40	24.41	23.37
548.0	 1197	799.5	635.7	590.2	405.4	320.1	289.1	241.7	190.3	214.4	323.0	217.3	156.9	144.4	 2157	 9297	725.4	103.1	91.36	85.09	81.04	69.23	69.56	64.87	64.43	62.17	59.84	55.87	54.28	52.13	52.57	50.04	50.25	46.90	44.65	40.98	42.03	38.92	37.48	35.45	33.01	31.04	29.76	27.33	26.40	29.45	27.11	28.45	24.30	24.78	22.31
550.0	 1322	795.1	759.0	558.3	466.4	419.3	275.2	203.1	199.0	193.2	319.6	243.9	144.3	148.2	944.7	 9819	 1735	106.2	95.01	82.82	73.99	73.27	68.50	67.61	65.42	57.64	57.67	53.00	51.73	51.34	51.85	49.88	49.81	44.82	42.04	42.21	40.01	38.83	36.05	36.23	32.45	29.30	31.02	29.26	27.90	28.58	26.45	28.50	27.01	24.40	21.85
552.0	 1152	869.8	680.9	567.9	515.4	354.1	270.8	218.0	193.4	177.8	272.7	289.6	148.8	142.7	361.2	 8935	 3639	99.68	87.93	83.50	75.53	69.85	66.05	64.35	60.83	58.33	60.90	53.82	50.93	49.22	49.85	46.72	47.37	44.74	42.36	40.57	42.76	37.51	36.53	33.50	31.91	31.30	30.69	28.57	26.56	27.97	25.80	27.42	27.60	25.84	22.69
554.0	 1304	947.4	803.5	495.9	500.0	382.8	283.4	230.9	182.4	163.2	252.4	336.6	145.7	141.0	180.4	 6703	 6219	139.8	91.51	82.68	75.45	72.86	65.66	64.83	59.07	57.93	56.95	51.74	52.09	46.56	49.64	47.41	45.59	42.89	41.52	38.89	39.05	34.73	35.85	31.74	31.11	30.49	30.32	25.45	26.41	30.26	25.06	25.23	26.25	23.18	22.38
556.0	 1469	 1265	709.6	604.7	534.7	386.2	340.8	199.9	193.7	164.8	216.4	359.2	163.3	127.7	137.8	 4173	 8848	305.2	82.09	83.88	72.69	73.56	63.61	61.83	58.01	55.71	54.89	52.35	51.64	45.28	47.15	43.38	42.78	41.85	38.68	39.82	36.87	34.76	33.82	31.47	29.96	28.78	27.57	25.82	27.50	27.36	25.50	24.80	24.82	25.20	22.17
558.0	 1223	 1064	753.6	564.4	497.5	338.2	264.2	245.3	187.5	165.4	175.9	363.6	167.6	131.8	132.9	 2154	9999.9	743.3	89.24	80.58	72.81	68.58	66.87	62.70	60.38	52.41	54.22	50.08	52.47	51.00	47.47	45.77	45.30	40.72	37.36	39.08	36.91	33.75	31.45	31.20	29.43	28.80	27.32	26.12	25.47	26.49	23.84	23.04	23.42	25.45	21.23
560.0	 1905	937.8	813.5	651.9	511.6	391.1	261.5	245.9	182.3	172.4	173.7	349.2	191.2	130.0	122.8	914.6	9999.9	 1812	92.64	76.91	78.16	65.43	63.31	64.49	58.75	58.07	52.26	49.92	52.68	50.34	46.59	46.15	41.74	40.30	40.49	37.08	35.86	33.32	31.03	31.04	29.37	27.67	27.18	26.42	24.31	26.61	25.96	23.57	23.91	25.95	22.60
562.0	 1566	 1004	941.2	651.7	532.5	394.9	315.7	197.0	220.8	172.9	168.7	338.8	233.5	127.0	123.4	342.7	9999.9	 3807	92.54	81.97	71.15	64.30	61.35	60.79	60.53	55.51	51.00	51.21	48.48	48.10	43.72	44.57	41.45	42.32	37.52	38.03	37.31	32.71	31.59	31.49	29.50	27.43	26.61	26.86	26.59	26.25	25.26	25.21	25.61	24.98	25.47
564.0	 1785	988.4	974.3	698.6	610.2	345.2	280.8	241.7	205.6	190.1	164.2	294.4	286.6	115.3	129.3	170.8	 8359	 6709	121.7	80.92	74.19	67.57	61.82	63.23	55.44	55.27	52.76	49.91	45.73	45.82	44.56	44.69	39.94	40.58	39.22	37.45	35.70	32.42	31.06	29.92	28.06	27.39	28.18	27.18	27.07	24.14	25.13	22.83	23.54	22.15	24.01
566.0	 1542	 1187	943.9	715.1	541.1	424.8	277.1	270.3	180.8	161.9	152.6	250.7	313.7	137.8	126.2	116.7	 5310	 9896	293.2	78.64	70.60	65.49	61.72	57.53	53.85	52.35	46.39	47.33	46.23	45.58	43.50	41.89	40.14	39.26	36.87	35.61	33.48	32.02	32.47	28.49	30.44	27.37	27.73	25.73	25.69	23.42	23.77	23.97	21.60	22.32	24.33
568.0	 1612	 1169	805.9	654.1	538.0	442.2	335.6	261.8	194.2	178.7	180.7	224.9	341.5	140.1	116.6	113.3	 2692	9999.9	775.2	79.79	70.04	64.15	60.29	56.25	51.28	48.20	49.18	47.54	47.15	43.70	42.47	41.13	40.28	36.51	35.65	34.81	34.06	33.07	30.78	28.28	29.20	28.08	27.94	25.29	25.65	24.43	22.86	21.87	23.22	22.46	21.94
570.0	 2124	 1262	976.4	751.0	524.0	513.1	302.7	266.3	209.6	185.3	182.0	180.9	355.7	155.9	110.7	107.5	 1089	9999.9	 1977	80.19	70.92	67.91	61.02	57.48	51.80	50.93	48.48	48.80	42.48	43.90	41.52	44.26	37.41	38.74	36.04	33.43	31.47	30.55	31.79	29.71	30.54	25.00	25.03	25.80	24.93	24.98	22.16	22.84	23.25	21.83	20.91
572.0	 2218	 1405	926.3	758.1	491.2	411.1	333.4	265.0	208.4	183.0	157.4	161.1	371.5	187.9	109.6	112.7	396.7	9999.9	 4215	84.28	71.80	68.71	58.46	60.58	53.74	49.64	45.69	46.44	42.55	40.88	41.01	43.15	39.46	38.37	36.77	33.26	32.55	29.74	28.72	28.27	27.23	25.88	25.62	24.10	25.93	24.50	23.79	23.40	23.16	25.28	21.80
574.0	 1935	 1180	 1090	791.4	547.9	471.6	296.6	266.4	195.1	194.1	167.3	164.9	346.7	244.2	111.1	100.6	162.5	 9600	 7691	142.1	66.24	67.56	61.08	57.03	53.53	46.86	45.34	46.22	46.42	41.25	40.74	40.59	40.05	38.16	38.22	33.51	33.00	32.21	29.63	27.68	26.47	26.37	26.21	23.74	24.63	22.91	21.63	21.96	22.17	21.40	21.38
576.0	 1991	 1507	977.6	848.3	623.4	466.8	367.8	247.4	199.9	185.7	160.1	147.7	303.1	273.9	120.1	101.6	119.2	 6205	9999.9	356.1	67.32	65.37	60.54	57.83	51.29	51.87	45.73	44.35	42.64	40.69	41.72	38.28	36.19	36.60	37.35	32.42	30.53	28.98	29.30	29.73	27.14	23.97	25.44	23.50	23.58	21.56	18.97	23.35	20.50	23.52	20.39
578.0	 2051	 1446	 1025	789.9	666.7	451.9	378.4	286.0	229.5	158.0	156.3	137.4	249.8	331.3	125.5	112.6	101.0	 3130	9999.9	969.0	72.21	65.42	55.12	56.18	51.18	49.79	46.62	43.47	46.49	41.73	41.93	40.10	37.39	37.91	33.89	32.96	30.84	28.81	28.75	25.12	27.26	25.49	25.90	24.35	23.53	23.05	20.99	22.35	22.90	23.06	20.58
580.0	 2303	 1300	 1121	844.9	643.8	447.0	394.7	298.8	262.2	162.9	175.2	137.4	214.7	371.6	138.5	111.5	100.8	 1227	9999.9	 2391	74.65	68.62	56.62	59.98	48.65	48.96	48.07	43.91	41.65	40.87	39.59	37.88	34.95	36.70	31.68	31.51	29.46	29.52	28.55	26.57	26.60	26.32	23.51	23.55	23.30	22.05	22.18	22.85	21.47	20.09	19.84
582.0	 1857	 1374	 1223	878.7	626.5	505.6	362.6	312.5	241.5	198.4	170.1	146.9	169.4	390.2	146.0	105.7	106.1	425.4	9999.9	 5204	86.84	60.86	57.71	58.21	51.42	45.54	45.46	45.54	40.00	40.85	39.56	36.72	35.19	31.41	35.44	32.25	29.50	31.67	26.23	25.64	24.57	21.97	24.05	24.19	22.22	23.49	23.38	21.32	21.07	21.60	19.47
584.0	 1974	 1502	 1299	943.8	551.2	525.9	375.1	356.5	208.5	199.5	164.8	146.8	145.3	401.4	191.3	105.1	106.0	168.5	9999.9	 9379	130.8	62.97	56.48	52.30	55.39	45.45	44.80	41.01	43.15	38.60	43.11	40.16	39.71	35.62	31.92	35.20	34.11	29.23	26.44	26.89	26.33	26.17	22.36	23.88	24.56	22.27	22.79	20.10	21.93	22.83	20.71
586.0	 2371	 1596	 1005	971.4	745.7	539.7	391.3	310.9	247.7	203.0	176.7	148.6	143.7	371.4	242.2	111.1	110.6	112.5	 7046	9999.9	308.8	63.64	59.72	53.08	49.47	45.18	43.79	45.79	42.33	40.00	37.93	37.46	37.48	37.11	32.36	31.88	30.25	28.79	28.48	27.36	25.83	26.86	23.09	23.51	22.57	21.74	23.23	22.98	21.04	22.30	21.66
588.0	 2839	 1810	 1362	 1036	779.3	601.0	354.2	345.7	235.6	230.2	166.2	155.8	131.2	335.9	311.7	123.2	104.9	111.1	 3581	9999.9	822.0	70.47	61.69	50.77	51.69	50.73	42.43	44.99	37.70	37.23	37.50	35.60	39.19	36.23	35.90	33.12	30.22	30.07	29.06	27.02	24.52	26.63	23.34	20.84	22.35	23.66	19.18	23.23	19.05	22.17	19.09
590.0	 2608	 1969	 1244	 1075	772.9	646.6	434.7	341.7	194.5	204.7	185.5	169.0	126.3	268.7	353.5	125.8	106.2	108.0	 1417	9999.9	 2118	73.21	57.69	52.51	48.37	50.78	43.46	41.08	39.42	36.50	31.89	32.98	36.42	35.31	36.92	30.71	29.51	28.28	30.95	26.73	26.32	26.16	25.16	24.32	23.35	24.66	21.74	21.94	23.81	22.74	20.02
592.0	 2831	 1879	 1433	 1265	835.6	600.1	414.8	263.5	230.1	200.5	163.2	155.8	113.7	215.2	402.2	139.6	111.6	96.30	471.7	9999.9	 4906	75.28	63.42	58.11	48.78	47.87	42.46	44.34	40.08	36.85	36.85	38.15	36.53	32.53	32.65	32.11	29.74	28.34	26.60	25.50	24.42	22.78	22.81	21.90	23.76	23.98	22.57	20.77	22.63	21.30	17.87
594.0	 2813	 2062	 1690	976.7	875.3	680.5	391.9	327.3	247.2	172.7	165.9	145.4	145.3	184.3	430.1	175.6	107.8	102.2	183.3	9999.9	 9394	121.2	62.14	57.23	51.42	48.61	41.08	43.28	37.95	35.39	33.85	38.21	31.05	33.13	30.89	31.36	30.85	29.36	28.49	28.35	25.47	26.16	24.26	23.34	23.25	23.35	20.83	22.84	24.26	19.53	19.59
596.0	 3884	 1950	 1225	 1350	973.1	711.7	472.3	370.5	223.7	230.0	187.3	162.2	134.2	167.1	428.8	227.5	113.3	105.4	126.9	 7477	9999.9	321.1	65.30	57.06	54.44	48.47	44.98	42.16	39.77	38.15	37.92	31.58	32.24	33.43	32.25	30.51	30.08	27.64	26.42	25.62	25.05	23.71	22.84	23.78	21.09	20.31	21.68	23.50	21.25	21.37	19.57
598.0	 4446	 2292	 1615	 1181	847.5	626.2	399.8	362.6	282.3	185.2	178.3	162.6	139.4	154.5	387.7	273.3	116.8	96.95	102.5	 3743	9999.9	878.9	68.01	55.14	55.34	50.37	44.01	39.34	40.35	39.80	40.49	37.24	31.83	35.05	30.94	31.47	30.73	29.62	27.89	26.50	28.16	24.01	22.40	23.07	22.20	21.64	20.72	21.31	20.46	20.45	18.81
600.0	 4284	 2099	 1697	 1237	979.0	755.8	440.4	343.0	269.0	217.8	185.4	164.8	163.2	154.8	367.4	292.8	116.7	114.2	98.65	 1926	9999.9	 1581	67.68	62.33	49.14	45.50	46.59	45.58	43.53	39.16	36.26	36.03	33.54	32.36	35.11	34.58	31.34	29.06	27.05	27.02	28.69	24.50	22.25	23.49	25.65	26.18	22.49	22.04	23.15	19.21	19.60
